"success","timeout","failed_images","failed_audio","failed_video","trial_type","trial_index","time_elapsed","internal_node_id","subject","subject_id","study_id","session_id","urlvar","current_url","view_history","rt","stimulus","response","choice","question_order"
"true","false","[]","[]","[]","preload","0","1602","0.0-0.0","475B4B2C0E2B44BC8108A5A66BA2A882","475B4B2C0E2B44BC8108A5A66BA2A882","98724ecc-3bfb-42e7-8583-88d707385871","bea99957-1862-4ad8-9558-57b91e42ce64","{""participantId"":""475B4B2C0E2B44BC8108A5A66BA2A882"",""assignmentId"":""98724ecc-3bfb-42e7-8583-88d707385871"",""projectId"":""bea99957-1862-4ad8-9558-57b91e42ce64""}","https://test12345.live/?participantId=475B4B2C0E2B44BC8108A5A66BA2A882&assignmentId=98724ecc-3bfb-42e7-8583-88d707385871&projectId=bea99957-1862-4ad8-9558-57b91e42ce64","","","","","",""
"","","","","","instructions","1","7506","0.0-1.0","475B4B2C0E2B44BC8108A5A66BA2A882","475B4B2C0E2B44BC8108A5A66BA2A882","98724ecc-3bfb-42e7-8583-88d707385871","bea99957-1862-4ad8-9558-57b91e42ce64","{""participantId"":""475B4B2C0E2B44BC8108A5A66BA2A882"",""assignmentId"":""98724ecc-3bfb-42e7-8583-88d707385871"",""projectId"":""bea99957-1862-4ad8-9558-57b91e42ce64""}","https://test12345.live/?participantId=475B4B2C0E2B44BC8108A5A66BA2A882&assignmentId=98724ecc-3bfb-42e7-8583-88d707385871&projectId=bea99957-1862-4ad8-9558-57b91e42ce64","[{""page_index"":0,""viewing_time"":5902}]","5902","","","",""
"","","","","","instructions","2","14940","0.0-2.0","475B4B2C0E2B44BC8108A5A66BA2A882","475B4B2C0E2B44BC8108A5A66BA2A882","98724ecc-3bfb-42e7-8583-88d707385871","bea99957-1862-4ad8-9558-57b91e42ce64","{""participantId"":""475B4B2C0E2B44BC8108A5A66BA2A882"",""assignmentId"":""98724ecc-3bfb-42e7-8583-88d707385871"",""projectId"":""bea99957-1862-4ad8-9558-57b91e42ce64""}","https://test12345.live/?participantId=475B4B2C0E2B44BC8108A5A66BA2A882&assignmentId=98724ecc-3bfb-42e7-8583-88d707385871&projectId=bea99957-1862-4ad8-9558-57b91e42ce64","[{""page_index"":0,""viewing_time"":7431}]","7432","","","",""
"true","","","","","fullscreen","3","22242","0.0-3.0","475B4B2C0E2B44BC8108A5A66BA2A882","475B4B2C0E2B44BC8108A5A66BA2A882","98724ecc-3bfb-42e7-8583-88d707385871","bea99957-1862-4ad8-9558-57b91e42ce64","{""participantId"":""475B4B2C0E2B44BC8108A5A66BA2A882"",""assignmentId"":""98724ecc-3bfb-42e7-8583-88d707385871"",""projectId"":""bea99957-1862-4ad8-9558-57b91e42ce64""}","https://test12345.live/?participantId=475B4B2C0E2B44BC8108A5A66BA2A882&assignmentId=98724ecc-3bfb-42e7-8583-88d707385871&projectId=bea99957-1862-4ad8-9558-57b91e42ce64","","6284","","","",""
"","","","","","instructions","4","30688","0.0-4.0","475B4B2C0E2B44BC8108A5A66BA2A882","475B4B2C0E2B44BC8108A5A66BA2A882","98724ecc-3bfb-42e7-8583-88d707385871","bea99957-1862-4ad8-9558-57b91e42ce64","{""participantId"":""475B4B2C0E2B44BC8108A5A66BA2A882"",""assignmentId"":""98724ecc-3bfb-42e7-8583-88d707385871"",""projectId"":""bea99957-1862-4ad8-9558-57b91e42ce64""}","https://test12345.live/?participantId=475B4B2C0E2B44BC8108A5A66BA2A882&assignmentId=98724ecc-3bfb-42e7-8583-88d707385871&projectId=bea99957-1862-4ad8-9558-57b91e42ce64","[{""page_index"":0,""viewing_time"":8444}]","8445","","","",""
"","","","","","html-button-response","5","34126","0.0-5.0","475B4B2C0E2B44BC8108A5A66BA2A882","475B4B2C0E2B44BC8108A5A66BA2A882","98724ecc-3bfb-42e7-8583-88d707385871","bea99957-1862-4ad8-9558-57b91e42ce64","{""participantId"":""475B4B2C0E2B44BC8108A5A66BA2A882"",""assignmentId"":""98724ecc-3bfb-42e7-8583-88d707385871"",""projectId"":""bea99957-1862-4ad8-9558-57b91e42ce64""}","https://test12345.live/?participantId=475B4B2C0E2B44BC8108A5A66BA2A882&assignmentId=98724ecc-3bfb-42e7-8583-88d707385871&projectId=bea99957-1862-4ad8-9558-57b91e42ce64","","3434","
    <div style=""display: flex; justify-content: center; align-items: center;"">
      <img src=""images/red_deck_2.png"" style=""width: 300px; height: 300px; margin-right: 10px;"" />
      <img src=""images/blue_deck_1.png"" style=""width: 300px; height: 300px;"" />
    </div>","1","1",""
"","","","","","html-keyboard-response","6","37135","0.0-6.0-0.0","475B4B2C0E2B44BC8108A5A66BA2A882","475B4B2C0E2B44BC8108A5A66BA2A882","98724ecc-3bfb-42e7-8583-88d707385871","bea99957-1862-4ad8-9558-57b91e42ce64","{""participantId"":""475B4B2C0E2B44BC8108A5A66BA2A882"",""assignmentId"":""98724ecc-3bfb-42e7-8583-88d707385871"",""projectId"":""bea99957-1862-4ad8-9558-57b91e42ce64""}","https://test12345.live/?participantId=475B4B2C0E2B44BC8108A5A66BA2A882&assignmentId=98724ecc-3bfb-42e7-8583-88d707385871&projectId=bea99957-1862-4ad8-9558-57b91e42ce64","","null","<div style=""display: flex; justify-content: center; align-items: center;"">
                    <img src=""images/causal/causal_series_15/causal_series_15_a.jpg"" style=""width: 300px; height: 300px;"" />
                  </div>","null","",""
"","","","","","html-keyboard-response","7","40146","0.0-6.0-1.0","475B4B2C0E2B44BC8108A5A66BA2A882","475B4B2C0E2B44BC8108A5A66BA2A882","98724ecc-3bfb-42e7-8583-88d707385871","bea99957-1862-4ad8-9558-57b91e42ce64","{""participantId"":""475B4B2C0E2B44BC8108A5A66BA2A882"",""assignmentId"":""98724ecc-3bfb-42e7-8583-88d707385871"",""projectId"":""bea99957-1862-4ad8-9558-57b91e42ce64""}","https://test12345.live/?participantId=475B4B2C0E2B44BC8108A5A66BA2A882&assignmentId=98724ecc-3bfb-42e7-8583-88d707385871&projectId=bea99957-1862-4ad8-9558-57b91e42ce64","","null","<div style=""display: flex; justify-content: center; align-items: center;"">
                    <img src=""images/causal/causal_series_15/causal_series_15_b.jpg"" style=""width: 300px; height: 300px;"" />
                  </div>","null","",""
"","","","","","html-keyboard-response","8","43156","0.0-6.0-2.0","475B4B2C0E2B44BC8108A5A66BA2A882","475B4B2C0E2B44BC8108A5A66BA2A882","98724ecc-3bfb-42e7-8583-88d707385871","bea99957-1862-4ad8-9558-57b91e42ce64","{""participantId"":""475B4B2C0E2B44BC8108A5A66BA2A882"",""assignmentId"":""98724ecc-3bfb-42e7-8583-88d707385871"",""projectId"":""bea99957-1862-4ad8-9558-57b91e42ce64""}","https://test12345.live/?participantId=475B4B2C0E2B44BC8108A5A66BA2A882&assignmentId=98724ecc-3bfb-42e7-8583-88d707385871&projectId=bea99957-1862-4ad8-9558-57b91e42ce64","","null","<div style=""display: flex; justify-content: center; align-items: center;"">
                    <img src=""images/causal/causal_series_15/causal_series_15_c.jpg"" style=""width: 300px; height: 300px;"" />
                  </div>","null","",""
"","","","","","html-keyboard-response","9","46173","0.0-6.0-3.0","475B4B2C0E2B44BC8108A5A66BA2A882","475B4B2C0E2B44BC8108A5A66BA2A882","98724ecc-3bfb-42e7-8583-88d707385871","bea99957-1862-4ad8-9558-57b91e42ce64","{""participantId"":""475B4B2C0E2B44BC8108A5A66BA2A882"",""assignmentId"":""98724ecc-3bfb-42e7-8583-88d707385871"",""projectId"":""bea99957-1862-4ad8-9558-57b91e42ce64""}","https://test12345.live/?participantId=475B4B2C0E2B44BC8108A5A66BA2A882&assignmentId=98724ecc-3bfb-42e7-8583-88d707385871&projectId=bea99957-1862-4ad8-9558-57b91e42ce64","","null","<div style=""display: flex; justify-content: center; align-items: center;"">
                    <img src=""images/causal/causal_series_15/causal_series_15_d.jpg"" style=""width: 300px; height: 300px;"" />
                  </div>","null","",""
"","","","","","html-button-response","10","48333","0.0-8.0","475B4B2C0E2B44BC8108A5A66BA2A882","475B4B2C0E2B44BC8108A5A66BA2A882","98724ecc-3bfb-42e7-8583-88d707385871","bea99957-1862-4ad8-9558-57b91e42ce64","{""participantId"":""475B4B2C0E2B44BC8108A5A66BA2A882"",""assignmentId"":""98724ecc-3bfb-42e7-8583-88d707385871"",""projectId"":""bea99957-1862-4ad8-9558-57b91e42ce64""}","https://test12345.live/?participantId=475B4B2C0E2B44BC8108A5A66BA2A882&assignmentId=98724ecc-3bfb-42e7-8583-88d707385871&projectId=bea99957-1862-4ad8-9558-57b91e42ce64","","2158","Was there a person in the picture?","0","",""
"","","","","","survey-likert","11","52276","0.0-9.0","475B4B2C0E2B44BC8108A5A66BA2A882","475B4B2C0E2B44BC8108A5A66BA2A882","98724ecc-3bfb-42e7-8583-88d707385871","bea99957-1862-4ad8-9558-57b91e42ce64","{""participantId"":""475B4B2C0E2B44BC8108A5A66BA2A882"",""assignmentId"":""98724ecc-3bfb-42e7-8583-88d707385871"",""projectId"":""bea99957-1862-4ad8-9558-57b91e42ce64""}","https://test12345.live/?participantId=475B4B2C0E2B44BC8108A5A66BA2A882&assignmentId=98724ecc-3bfb-42e7-8583-88d707385871&projectId=bea99957-1862-4ad8-9558-57b91e42ce64","","3938","","{""Q0"":2}","","[0]"
"","","","","","html-button-response","12","53570","0.0-10.0","475B4B2C0E2B44BC8108A5A66BA2A882","475B4B2C0E2B44BC8108A5A66BA2A882","98724ecc-3bfb-42e7-8583-88d707385871","bea99957-1862-4ad8-9558-57b91e42ce64","{""participantId"":""475B4B2C0E2B44BC8108A5A66BA2A882"",""assignmentId"":""98724ecc-3bfb-42e7-8583-88d707385871"",""projectId"":""bea99957-1862-4ad8-9558-57b91e42ce64""}","https://test12345.live/?participantId=475B4B2C0E2B44BC8108A5A66BA2A882&assignmentId=98724ecc-3bfb-42e7-8583-88d707385871&projectId=bea99957-1862-4ad8-9558-57b91e42ce64","","1290","
    <div style=""display: flex; justify-content: center; align-items: center;"">
      <img src=""images/red_deck_2.png"" style=""width: 300px; height: 300px; margin-right: 10px;"" />
      <img src=""images/blue_deck_1.png"" style=""width: 300px; height: 300px;"" />
    </div>","1","1",""
"","","","","","html-keyboard-response","13","56585","0.0-11.0-0.0","475B4B2C0E2B44BC8108A5A66BA2A882","475B4B2C0E2B44BC8108A5A66BA2A882","98724ecc-3bfb-42e7-8583-88d707385871","bea99957-1862-4ad8-9558-57b91e42ce64","{""participantId"":""475B4B2C0E2B44BC8108A5A66BA2A882"",""assignmentId"":""98724ecc-3bfb-42e7-8583-88d707385871"",""projectId"":""bea99957-1862-4ad8-9558-57b91e42ce64""}","https://test12345.live/?participantId=475B4B2C0E2B44BC8108A5A66BA2A882&assignmentId=98724ecc-3bfb-42e7-8583-88d707385871&projectId=bea99957-1862-4ad8-9558-57b91e42ce64","","null","<div style=""display: flex; justify-content: center; align-items: center;"">
                    <img src=""images/causal/causal_series_1/causal_series_1_a.jpg"" style=""width: 300px; height: 300px;"" />
                  </div>","null","",""
"","","","","","html-keyboard-response","14","59599","0.0-11.0-1.0","475B4B2C0E2B44BC8108A5A66BA2A882","475B4B2C0E2B44BC8108A5A66BA2A882","98724ecc-3bfb-42e7-8583-88d707385871","bea99957-1862-4ad8-9558-57b91e42ce64","{""participantId"":""475B4B2C0E2B44BC8108A5A66BA2A882"",""assignmentId"":""98724ecc-3bfb-42e7-8583-88d707385871"",""projectId"":""bea99957-1862-4ad8-9558-57b91e42ce64""}","https://test12345.live/?participantId=475B4B2C0E2B44BC8108A5A66BA2A882&assignmentId=98724ecc-3bfb-42e7-8583-88d707385871&projectId=bea99957-1862-4ad8-9558-57b91e42ce64","","null","<div style=""display: flex; justify-content: center; align-items: center;"">
                    <img src=""images/causal/causal_series_1/causal_series_1_b.jpg"" style=""width: 300px; height: 300px;"" />
                  </div>","null","",""
"","","","","","html-keyboard-response","15","62611","0.0-11.0-2.0","475B4B2C0E2B44BC8108A5A66BA2A882","475B4B2C0E2B44BC8108A5A66BA2A882","98724ecc-3bfb-42e7-8583-88d707385871","bea99957-1862-4ad8-9558-57b91e42ce64","{""participantId"":""475B4B2C0E2B44BC8108A5A66BA2A882"",""assignmentId"":""98724ecc-3bfb-42e7-8583-88d707385871"",""projectId"":""bea99957-1862-4ad8-9558-57b91e42ce64""}","https://test12345.live/?participantId=475B4B2C0E2B44BC8108A5A66BA2A882&assignmentId=98724ecc-3bfb-42e7-8583-88d707385871&projectId=bea99957-1862-4ad8-9558-57b91e42ce64","","null","<div style=""display: flex; justify-content: center; align-items: center;"">
                    <img src=""images/causal/causal_series_1/causal_series_1_c.jpg"" style=""width: 300px; height: 300px;"" />
                  </div>","null","",""
"","","","","","html-keyboard-response","16","65614","0.0-11.0-3.0","475B4B2C0E2B44BC8108A5A66BA2A882","475B4B2C0E2B44BC8108A5A66BA2A882","98724ecc-3bfb-42e7-8583-88d707385871","bea99957-1862-4ad8-9558-57b91e42ce64","{""participantId"":""475B4B2C0E2B44BC8108A5A66BA2A882"",""assignmentId"":""98724ecc-3bfb-42e7-8583-88d707385871"",""projectId"":""bea99957-1862-4ad8-9558-57b91e42ce64""}","https://test12345.live/?participantId=475B4B2C0E2B44BC8108A5A66BA2A882&assignmentId=98724ecc-3bfb-42e7-8583-88d707385871&projectId=bea99957-1862-4ad8-9558-57b91e42ce64","","null","<div style=""display: flex; justify-content: center; align-items: center;"">
                    <img src=""images/causal/causal_series_1/causal_series_1_d.jpg"" style=""width: 300px; height: 300px;"" />
                  </div>","null","",""
"","","","","","html-button-response","17","67134","0.0-13.0","475B4B2C0E2B44BC8108A5A66BA2A882","475B4B2C0E2B44BC8108A5A66BA2A882","98724ecc-3bfb-42e7-8583-88d707385871","bea99957-1862-4ad8-9558-57b91e42ce64","{""participantId"":""475B4B2C0E2B44BC8108A5A66BA2A882"",""assignmentId"":""98724ecc-3bfb-42e7-8583-88d707385871"",""projectId"":""bea99957-1862-4ad8-9558-57b91e42ce64""}","https://test12345.live/?participantId=475B4B2C0E2B44BC8108A5A66BA2A882&assignmentId=98724ecc-3bfb-42e7-8583-88d707385871&projectId=bea99957-1862-4ad8-9558-57b91e42ce64","","1518","Was there a person in the picture?","1","",""
"","","","","","survey-likert","18","69333","0.0-14.0","475B4B2C0E2B44BC8108A5A66BA2A882","475B4B2C0E2B44BC8108A5A66BA2A882","98724ecc-3bfb-42e7-8583-88d707385871","bea99957-1862-4ad8-9558-57b91e42ce64","{""participantId"":""475B4B2C0E2B44BC8108A5A66BA2A882"",""assignmentId"":""98724ecc-3bfb-42e7-8583-88d707385871"",""projectId"":""bea99957-1862-4ad8-9558-57b91e42ce64""}","https://test12345.live/?participantId=475B4B2C0E2B44BC8108A5A66BA2A882&assignmentId=98724ecc-3bfb-42e7-8583-88d707385871&projectId=bea99957-1862-4ad8-9558-57b91e42ce64","","2197","","{""Q0"":1}","","[0]"
"","","","","","html-button-response","19","70403","0.0-15.0","475B4B2C0E2B44BC8108A5A66BA2A882","475B4B2C0E2B44BC8108A5A66BA2A882","98724ecc-3bfb-42e7-8583-88d707385871","bea99957-1862-4ad8-9558-57b91e42ce64","{""participantId"":""475B4B2C0E2B44BC8108A5A66BA2A882"",""assignmentId"":""98724ecc-3bfb-42e7-8583-88d707385871"",""projectId"":""bea99957-1862-4ad8-9558-57b91e42ce64""}","https://test12345.live/?participantId=475B4B2C0E2B44BC8108A5A66BA2A882&assignmentId=98724ecc-3bfb-42e7-8583-88d707385871&projectId=bea99957-1862-4ad8-9558-57b91e42ce64","","1066","
    <div style=""display: flex; justify-content: center; align-items: center;"">
      <img src=""images/red_deck_2.png"" style=""width: 300px; height: 300px; margin-right: 10px;"" />
      <img src=""images/blue_deck_1.png"" style=""width: 300px; height: 300px;"" />
    </div>","1","1",""
"","","","","","html-keyboard-response","20","73411","0.0-16.0-0.0","475B4B2C0E2B44BC8108A5A66BA2A882","475B4B2C0E2B44BC8108A5A66BA2A882","98724ecc-3bfb-42e7-8583-88d707385871","bea99957-1862-4ad8-9558-57b91e42ce64","{""participantId"":""475B4B2C0E2B44BC8108A5A66BA2A882"",""assignmentId"":""98724ecc-3bfb-42e7-8583-88d707385871"",""projectId"":""bea99957-1862-4ad8-9558-57b91e42ce64""}","https://test12345.live/?participantId=475B4B2C0E2B44BC8108A5A66BA2A882&assignmentId=98724ecc-3bfb-42e7-8583-88d707385871&projectId=bea99957-1862-4ad8-9558-57b91e42ce64","","null","<div style=""display: flex; justify-content: center; align-items: center;"">
                    <img src=""images/causal/causal_series_8/causal_series_8_a.jpg"" style=""width: 300px; height: 300px;"" />
                  </div>","null","",""
"","","","","","html-keyboard-response","21","76426","0.0-16.0-1.0","475B4B2C0E2B44BC8108A5A66BA2A882","475B4B2C0E2B44BC8108A5A66BA2A882","98724ecc-3bfb-42e7-8583-88d707385871","bea99957-1862-4ad8-9558-57b91e42ce64","{""participantId"":""475B4B2C0E2B44BC8108A5A66BA2A882"",""assignmentId"":""98724ecc-3bfb-42e7-8583-88d707385871"",""projectId"":""bea99957-1862-4ad8-9558-57b91e42ce64""}","https://test12345.live/?participantId=475B4B2C0E2B44BC8108A5A66BA2A882&assignmentId=98724ecc-3bfb-42e7-8583-88d707385871&projectId=bea99957-1862-4ad8-9558-57b91e42ce64","","null","<div style=""display: flex; justify-content: center; align-items: center;"">
                    <img src=""images/causal/causal_series_8/causal_series_8_b.jpg"" style=""width: 300px; height: 300px;"" />
                  </div>","null","",""
"","","","","","html-keyboard-response","22","79429","0.0-16.0-2.0","475B4B2C0E2B44BC8108A5A66BA2A882","475B4B2C0E2B44BC8108A5A66BA2A882","98724ecc-3bfb-42e7-8583-88d707385871","bea99957-1862-4ad8-9558-57b91e42ce64","{""participantId"":""475B4B2C0E2B44BC8108A5A66BA2A882"",""assignmentId"":""98724ecc-3bfb-42e7-8583-88d707385871"",""projectId"":""bea99957-1862-4ad8-9558-57b91e42ce64""}","https://test12345.live/?participantId=475B4B2C0E2B44BC8108A5A66BA2A882&assignmentId=98724ecc-3bfb-42e7-8583-88d707385871&projectId=bea99957-1862-4ad8-9558-57b91e42ce64","","null","<div style=""display: flex; justify-content: center; align-items: center;"">
                    <img src=""images/causal/causal_series_8/causal_series_8_c.jpg"" style=""width: 300px; height: 300px;"" />
                  </div>","null","",""
"","","","","","html-keyboard-response","23","82440","0.0-16.0-3.0","475B4B2C0E2B44BC8108A5A66BA2A882","475B4B2C0E2B44BC8108A5A66BA2A882","98724ecc-3bfb-42e7-8583-88d707385871","bea99957-1862-4ad8-9558-57b91e42ce64","{""participantId"":""475B4B2C0E2B44BC8108A5A66BA2A882"",""assignmentId"":""98724ecc-3bfb-42e7-8583-88d707385871"",""projectId"":""bea99957-1862-4ad8-9558-57b91e42ce64""}","https://test12345.live/?participantId=475B4B2C0E2B44BC8108A5A66BA2A882&assignmentId=98724ecc-3bfb-42e7-8583-88d707385871&projectId=bea99957-1862-4ad8-9558-57b91e42ce64","","null","<div style=""display: flex; justify-content: center; align-items: center;"">
                    <img src=""images/causal/causal_series_8/causal_series_8_d.jpg"" style=""width: 300px; height: 300px;"" />
                  </div>","null","",""
"","","","","","html-button-response","24","84366","0.0-18.0","475B4B2C0E2B44BC8108A5A66BA2A882","475B4B2C0E2B44BC8108A5A66BA2A882","98724ecc-3bfb-42e7-8583-88d707385871","bea99957-1862-4ad8-9558-57b91e42ce64","{""participantId"":""475B4B2C0E2B44BC8108A5A66BA2A882"",""assignmentId"":""98724ecc-3bfb-42e7-8583-88d707385871"",""projectId"":""bea99957-1862-4ad8-9558-57b91e42ce64""}","https://test12345.live/?participantId=475B4B2C0E2B44BC8108A5A66BA2A882&assignmentId=98724ecc-3bfb-42e7-8583-88d707385871&projectId=bea99957-1862-4ad8-9558-57b91e42ce64","","1925","Was there a person in the picture?","0","",""
"","","","","","survey-likert","25","87140","0.0-19.0","475B4B2C0E2B44BC8108A5A66BA2A882","475B4B2C0E2B44BC8108A5A66BA2A882","98724ecc-3bfb-42e7-8583-88d707385871","bea99957-1862-4ad8-9558-57b91e42ce64","{""participantId"":""475B4B2C0E2B44BC8108A5A66BA2A882"",""assignmentId"":""98724ecc-3bfb-42e7-8583-88d707385871"",""projectId"":""bea99957-1862-4ad8-9558-57b91e42ce64""}","https://test12345.live/?participantId=475B4B2C0E2B44BC8108A5A66BA2A882&assignmentId=98724ecc-3bfb-42e7-8583-88d707385871&projectId=bea99957-1862-4ad8-9558-57b91e42ce64","","2772","","{""Q0"":3}","","[0]"
"","","","","","html-button-response","26","88105","0.0-20.0","475B4B2C0E2B44BC8108A5A66BA2A882","475B4B2C0E2B44BC8108A5A66BA2A882","98724ecc-3bfb-42e7-8583-88d707385871","bea99957-1862-4ad8-9558-57b91e42ce64","{""participantId"":""475B4B2C0E2B44BC8108A5A66BA2A882"",""assignmentId"":""98724ecc-3bfb-42e7-8583-88d707385871"",""projectId"":""bea99957-1862-4ad8-9558-57b91e42ce64""}","https://test12345.live/?participantId=475B4B2C0E2B44BC8108A5A66BA2A882&assignmentId=98724ecc-3bfb-42e7-8583-88d707385871&projectId=bea99957-1862-4ad8-9558-57b91e42ce64","","961","
    <div style=""display: flex; justify-content: center; align-items: center;"">
      <img src=""images/red_deck_2.png"" style=""width: 300px; height: 300px; margin-right: 10px;"" />
      <img src=""images/blue_deck_1.png"" style=""width: 300px; height: 300px;"" />
    </div>","1","1",""
"","","","","","html-keyboard-response","27","91122","0.0-21.0-0.0","475B4B2C0E2B44BC8108A5A66BA2A882","475B4B2C0E2B44BC8108A5A66BA2A882","98724ecc-3bfb-42e7-8583-88d707385871","bea99957-1862-4ad8-9558-57b91e42ce64","{""participantId"":""475B4B2C0E2B44BC8108A5A66BA2A882"",""assignmentId"":""98724ecc-3bfb-42e7-8583-88d707385871"",""projectId"":""bea99957-1862-4ad8-9558-57b91e42ce64""}","https://test12345.live/?participantId=475B4B2C0E2B44BC8108A5A66BA2A882&assignmentId=98724ecc-3bfb-42e7-8583-88d707385871&projectId=bea99957-1862-4ad8-9558-57b91e42ce64","","null","<div style=""display: flex; justify-content: center; align-items: center;"">
                    <img src=""images/causal/causal_series_10/causal_series_10_a.jpg"" style=""width: 300px; height: 300px;"" />
                  </div>","null","",""
"","","","","","html-keyboard-response","28","94134","0.0-21.0-1.0","475B4B2C0E2B44BC8108A5A66BA2A882","475B4B2C0E2B44BC8108A5A66BA2A882","98724ecc-3bfb-42e7-8583-88d707385871","bea99957-1862-4ad8-9558-57b91e42ce64","{""participantId"":""475B4B2C0E2B44BC8108A5A66BA2A882"",""assignmentId"":""98724ecc-3bfb-42e7-8583-88d707385871"",""projectId"":""bea99957-1862-4ad8-9558-57b91e42ce64""}","https://test12345.live/?participantId=475B4B2C0E2B44BC8108A5A66BA2A882&assignmentId=98724ecc-3bfb-42e7-8583-88d707385871&projectId=bea99957-1862-4ad8-9558-57b91e42ce64","","null","<div style=""display: flex; justify-content: center; align-items: center;"">
                    <img src=""images/causal/causal_series_10/causal_series_10_b.jpg"" style=""width: 300px; height: 300px;"" />
                  </div>","null","",""
"","","","","","html-keyboard-response","29","97153","0.0-21.0-2.0","475B4B2C0E2B44BC8108A5A66BA2A882","475B4B2C0E2B44BC8108A5A66BA2A882","98724ecc-3bfb-42e7-8583-88d707385871","bea99957-1862-4ad8-9558-57b91e42ce64","{""participantId"":""475B4B2C0E2B44BC8108A5A66BA2A882"",""assignmentId"":""98724ecc-3bfb-42e7-8583-88d707385871"",""projectId"":""bea99957-1862-4ad8-9558-57b91e42ce64""}","https://test12345.live/?participantId=475B4B2C0E2B44BC8108A5A66BA2A882&assignmentId=98724ecc-3bfb-42e7-8583-88d707385871&projectId=bea99957-1862-4ad8-9558-57b91e42ce64","","null","<div style=""display: flex; justify-content: center; align-items: center;"">
                    <img src=""images/causal/causal_series_10/causal_series_10_c.jpg"" style=""width: 300px; height: 300px;"" />
                  </div>","null","",""
"","","","","","html-keyboard-response","30","100159","0.0-21.0-3.0","475B4B2C0E2B44BC8108A5A66BA2A882","475B4B2C0E2B44BC8108A5A66BA2A882","98724ecc-3bfb-42e7-8583-88d707385871","bea99957-1862-4ad8-9558-57b91e42ce64","{""participantId"":""475B4B2C0E2B44BC8108A5A66BA2A882"",""assignmentId"":""98724ecc-3bfb-42e7-8583-88d707385871"",""projectId"":""bea99957-1862-4ad8-9558-57b91e42ce64""}","https://test12345.live/?participantId=475B4B2C0E2B44BC8108A5A66BA2A882&assignmentId=98724ecc-3bfb-42e7-8583-88d707385871&projectId=bea99957-1862-4ad8-9558-57b91e42ce64","","null","<div style=""display: flex; justify-content: center; align-items: center;"">
                    <img src=""images/causal/causal_series_10/causal_series_10_d.jpg"" style=""width: 300px; height: 300px;"" />
                  </div>","null","",""
"","","","","","html-button-response","31","101227","0.0-23.0","475B4B2C0E2B44BC8108A5A66BA2A882","475B4B2C0E2B44BC8108A5A66BA2A882","98724ecc-3bfb-42e7-8583-88d707385871","bea99957-1862-4ad8-9558-57b91e42ce64","{""participantId"":""475B4B2C0E2B44BC8108A5A66BA2A882"",""assignmentId"":""98724ecc-3bfb-42e7-8583-88d707385871"",""projectId"":""bea99957-1862-4ad8-9558-57b91e42ce64""}","https://test12345.live/?participantId=475B4B2C0E2B44BC8108A5A66BA2A882&assignmentId=98724ecc-3bfb-42e7-8583-88d707385871&projectId=bea99957-1862-4ad8-9558-57b91e42ce64","","1066","Was there a person in the picture?","1","",""
"","","","","","survey-likert","32","103777","0.0-24.0","475B4B2C0E2B44BC8108A5A66BA2A882","475B4B2C0E2B44BC8108A5A66BA2A882","98724ecc-3bfb-42e7-8583-88d707385871","bea99957-1862-4ad8-9558-57b91e42ce64","{""participantId"":""475B4B2C0E2B44BC8108A5A66BA2A882"",""assignmentId"":""98724ecc-3bfb-42e7-8583-88d707385871"",""projectId"":""bea99957-1862-4ad8-9558-57b91e42ce64""}","https://test12345.live/?participantId=475B4B2C0E2B44BC8108A5A66BA2A882&assignmentId=98724ecc-3bfb-42e7-8583-88d707385871&projectId=bea99957-1862-4ad8-9558-57b91e42ce64","","2547","","{""Q0"":2}","","[0]"
"","","","","","html-button-response","33","104781","0.0-25.0","475B4B2C0E2B44BC8108A5A66BA2A882","475B4B2C0E2B44BC8108A5A66BA2A882","98724ecc-3bfb-42e7-8583-88d707385871","bea99957-1862-4ad8-9558-57b91e42ce64","{""participantId"":""475B4B2C0E2B44BC8108A5A66BA2A882"",""assignmentId"":""98724ecc-3bfb-42e7-8583-88d707385871"",""projectId"":""bea99957-1862-4ad8-9558-57b91e42ce64""}","https://test12345.live/?participantId=475B4B2C0E2B44BC8108A5A66BA2A882&assignmentId=98724ecc-3bfb-42e7-8583-88d707385871&projectId=bea99957-1862-4ad8-9558-57b91e42ce64","","1001","
    <div style=""display: flex; justify-content: center; align-items: center;"">
      <img src=""images/red_deck_2.png"" style=""width: 300px; height: 300px; margin-right: 10px;"" />
      <img src=""images/blue_deck_1.png"" style=""width: 300px; height: 300px;"" />
    </div>","1","1",""
"","","","","","html-keyboard-response","34","107795","0.0-26.0-0.0","475B4B2C0E2B44BC8108A5A66BA2A882","475B4B2C0E2B44BC8108A5A66BA2A882","98724ecc-3bfb-42e7-8583-88d707385871","bea99957-1862-4ad8-9558-57b91e42ce64","{""participantId"":""475B4B2C0E2B44BC8108A5A66BA2A882"",""assignmentId"":""98724ecc-3bfb-42e7-8583-88d707385871"",""projectId"":""bea99957-1862-4ad8-9558-57b91e42ce64""}","https://test12345.live/?participantId=475B4B2C0E2B44BC8108A5A66BA2A882&assignmentId=98724ecc-3bfb-42e7-8583-88d707385871&projectId=bea99957-1862-4ad8-9558-57b91e42ce64","","null","<div style=""display: flex; justify-content: center; align-items: center;"">
                    <img src=""images/causal/causal_series_7/causal_series_7_a.jpg"" style=""width: 300px; height: 300px;"" />
                  </div>","null","",""
"","","","","","html-keyboard-response","35","110805","0.0-26.0-1.0","475B4B2C0E2B44BC8108A5A66BA2A882","475B4B2C0E2B44BC8108A5A66BA2A882","98724ecc-3bfb-42e7-8583-88d707385871","bea99957-1862-4ad8-9558-57b91e42ce64","{""participantId"":""475B4B2C0E2B44BC8108A5A66BA2A882"",""assignmentId"":""98724ecc-3bfb-42e7-8583-88d707385871"",""projectId"":""bea99957-1862-4ad8-9558-57b91e42ce64""}","https://test12345.live/?participantId=475B4B2C0E2B44BC8108A5A66BA2A882&assignmentId=98724ecc-3bfb-42e7-8583-88d707385871&projectId=bea99957-1862-4ad8-9558-57b91e42ce64","","null","<div style=""display: flex; justify-content: center; align-items: center;"">
                    <img src=""images/causal/causal_series_7/causal_series_7_b.jpg"" style=""width: 300px; height: 300px;"" />
                  </div>","null","",""
"","","","","","html-keyboard-response","36","113822","0.0-26.0-2.0","475B4B2C0E2B44BC8108A5A66BA2A882","475B4B2C0E2B44BC8108A5A66BA2A882","98724ecc-3bfb-42e7-8583-88d707385871","bea99957-1862-4ad8-9558-57b91e42ce64","{""participantId"":""475B4B2C0E2B44BC8108A5A66BA2A882"",""assignmentId"":""98724ecc-3bfb-42e7-8583-88d707385871"",""projectId"":""bea99957-1862-4ad8-9558-57b91e42ce64""}","https://test12345.live/?participantId=475B4B2C0E2B44BC8108A5A66BA2A882&assignmentId=98724ecc-3bfb-42e7-8583-88d707385871&projectId=bea99957-1862-4ad8-9558-57b91e42ce64","","null","<div style=""display: flex; justify-content: center; align-items: center;"">
                    <img src=""images/causal/causal_series_7/causal_series_7_c.jpg"" style=""width: 300px; height: 300px;"" />
                  </div>","null","",""
"","","","","","html-keyboard-response","37","116832","0.0-26.0-3.0","475B4B2C0E2B44BC8108A5A66BA2A882","475B4B2C0E2B44BC8108A5A66BA2A882","98724ecc-3bfb-42e7-8583-88d707385871","bea99957-1862-4ad8-9558-57b91e42ce64","{""participantId"":""475B4B2C0E2B44BC8108A5A66BA2A882"",""assignmentId"":""98724ecc-3bfb-42e7-8583-88d707385871"",""projectId"":""bea99957-1862-4ad8-9558-57b91e42ce64""}","https://test12345.live/?participantId=475B4B2C0E2B44BC8108A5A66BA2A882&assignmentId=98724ecc-3bfb-42e7-8583-88d707385871&projectId=bea99957-1862-4ad8-9558-57b91e42ce64","","null","<div style=""display: flex; justify-content: center; align-items: center;"">
                    <img src=""images/causal/causal_series_7/causal_series_7_d.jpg"" style=""width: 300px; height: 300px;"" />
                  </div>","null","",""
"","","","","","html-button-response","38","117733","0.0-28.0","475B4B2C0E2B44BC8108A5A66BA2A882","475B4B2C0E2B44BC8108A5A66BA2A882","98724ecc-3bfb-42e7-8583-88d707385871","bea99957-1862-4ad8-9558-57b91e42ce64","{""participantId"":""475B4B2C0E2B44BC8108A5A66BA2A882"",""assignmentId"":""98724ecc-3bfb-42e7-8583-88d707385871"",""projectId"":""bea99957-1862-4ad8-9558-57b91e42ce64""}","https://test12345.live/?participantId=475B4B2C0E2B44BC8108A5A66BA2A882&assignmentId=98724ecc-3bfb-42e7-8583-88d707385871&projectId=bea99957-1862-4ad8-9558-57b91e42ce64","","899","Was there a person in the picture?","1","",""
"","","","","","survey-likert","39","121557","0.0-29.0","475B4B2C0E2B44BC8108A5A66BA2A882","475B4B2C0E2B44BC8108A5A66BA2A882","98724ecc-3bfb-42e7-8583-88d707385871","bea99957-1862-4ad8-9558-57b91e42ce64","{""participantId"":""475B4B2C0E2B44BC8108A5A66BA2A882"",""assignmentId"":""98724ecc-3bfb-42e7-8583-88d707385871"",""projectId"":""bea99957-1862-4ad8-9558-57b91e42ce64""}","https://test12345.live/?participantId=475B4B2C0E2B44BC8108A5A66BA2A882&assignmentId=98724ecc-3bfb-42e7-8583-88d707385871&projectId=bea99957-1862-4ad8-9558-57b91e42ce64","","3822","","{""Q0"":3}","","[0]"
"","","","","","html-button-response","40","122588","0.0-30.0","475B4B2C0E2B44BC8108A5A66BA2A882","475B4B2C0E2B44BC8108A5A66BA2A882","98724ecc-3bfb-42e7-8583-88d707385871","bea99957-1862-4ad8-9558-57b91e42ce64","{""participantId"":""475B4B2C0E2B44BC8108A5A66BA2A882"",""assignmentId"":""98724ecc-3bfb-42e7-8583-88d707385871"",""projectId"":""bea99957-1862-4ad8-9558-57b91e42ce64""}","https://test12345.live/?participantId=475B4B2C0E2B44BC8108A5A66BA2A882&assignmentId=98724ecc-3bfb-42e7-8583-88d707385871&projectId=bea99957-1862-4ad8-9558-57b91e42ce64","","1027","
    <div style=""display: flex; justify-content: center; align-items: center;"">
      <img src=""images/red_deck_2.png"" style=""width: 300px; height: 300px; margin-right: 10px;"" />
      <img src=""images/blue_deck_1.png"" style=""width: 300px; height: 300px;"" />
    </div>","1","1",""
"","","","","","html-keyboard-response","41","125607","0.0-31.0-0.0","475B4B2C0E2B44BC8108A5A66BA2A882","475B4B2C0E2B44BC8108A5A66BA2A882","98724ecc-3bfb-42e7-8583-88d707385871","bea99957-1862-4ad8-9558-57b91e42ce64","{""participantId"":""475B4B2C0E2B44BC8108A5A66BA2A882"",""assignmentId"":""98724ecc-3bfb-42e7-8583-88d707385871"",""projectId"":""bea99957-1862-4ad8-9558-57b91e42ce64""}","https://test12345.live/?participantId=475B4B2C0E2B44BC8108A5A66BA2A882&assignmentId=98724ecc-3bfb-42e7-8583-88d707385871&projectId=bea99957-1862-4ad8-9558-57b91e42ce64","","null","<div style=""display: flex; justify-content: center; align-items: center;"">
                    <img src=""images/causal/causal_series_9/causal_series_9_a.jpg"" style=""width: 300px; height: 300px;"" />
                  </div>","null","",""
"","","","","","html-keyboard-response","42","128619","0.0-31.0-1.0","475B4B2C0E2B44BC8108A5A66BA2A882","475B4B2C0E2B44BC8108A5A66BA2A882","98724ecc-3bfb-42e7-8583-88d707385871","bea99957-1862-4ad8-9558-57b91e42ce64","{""participantId"":""475B4B2C0E2B44BC8108A5A66BA2A882"",""assignmentId"":""98724ecc-3bfb-42e7-8583-88d707385871"",""projectId"":""bea99957-1862-4ad8-9558-57b91e42ce64""}","https://test12345.live/?participantId=475B4B2C0E2B44BC8108A5A66BA2A882&assignmentId=98724ecc-3bfb-42e7-8583-88d707385871&projectId=bea99957-1862-4ad8-9558-57b91e42ce64","","null","<div style=""display: flex; justify-content: center; align-items: center;"">
                    <img src=""images/causal/causal_series_9/causal_series_9_b.jpg"" style=""width: 300px; height: 300px;"" />
                  </div>","null","",""
"","","","","","html-keyboard-response","43","131622","0.0-31.0-2.0","475B4B2C0E2B44BC8108A5A66BA2A882","475B4B2C0E2B44BC8108A5A66BA2A882","98724ecc-3bfb-42e7-8583-88d707385871","bea99957-1862-4ad8-9558-57b91e42ce64","{""participantId"":""475B4B2C0E2B44BC8108A5A66BA2A882"",""assignmentId"":""98724ecc-3bfb-42e7-8583-88d707385871"",""projectId"":""bea99957-1862-4ad8-9558-57b91e42ce64""}","https://test12345.live/?participantId=475B4B2C0E2B44BC8108A5A66BA2A882&assignmentId=98724ecc-3bfb-42e7-8583-88d707385871&projectId=bea99957-1862-4ad8-9558-57b91e42ce64","","null","<div style=""display: flex; justify-content: center; align-items: center;"">
                    <img src=""images/causal/causal_series_9/causal_series_9_c.jpg"" style=""width: 300px; height: 300px;"" />
                  </div>","null","",""
"","","","","","html-keyboard-response","44","134637","0.0-31.0-3.0","475B4B2C0E2B44BC8108A5A66BA2A882","475B4B2C0E2B44BC8108A5A66BA2A882","98724ecc-3bfb-42e7-8583-88d707385871","bea99957-1862-4ad8-9558-57b91e42ce64","{""participantId"":""475B4B2C0E2B44BC8108A5A66BA2A882"",""assignmentId"":""98724ecc-3bfb-42e7-8583-88d707385871"",""projectId"":""bea99957-1862-4ad8-9558-57b91e42ce64""}","https://test12345.live/?participantId=475B4B2C0E2B44BC8108A5A66BA2A882&assignmentId=98724ecc-3bfb-42e7-8583-88d707385871&projectId=bea99957-1862-4ad8-9558-57b91e42ce64","","null","<div style=""display: flex; justify-content: center; align-items: center;"">
                    <img src=""images/causal/causal_series_9/causal_series_9_d.jpg"" style=""width: 300px; height: 300px;"" />
                  </div>","null","",""
"","","","","","html-button-response","45","135778","0.0-33.0","475B4B2C0E2B44BC8108A5A66BA2A882","475B4B2C0E2B44BC8108A5A66BA2A882","98724ecc-3bfb-42e7-8583-88d707385871","bea99957-1862-4ad8-9558-57b91e42ce64","{""participantId"":""475B4B2C0E2B44BC8108A5A66BA2A882"",""assignmentId"":""98724ecc-3bfb-42e7-8583-88d707385871"",""projectId"":""bea99957-1862-4ad8-9558-57b91e42ce64""}","https://test12345.live/?participantId=475B4B2C0E2B44BC8108A5A66BA2A882&assignmentId=98724ecc-3bfb-42e7-8583-88d707385871&projectId=bea99957-1862-4ad8-9558-57b91e42ce64","","1139","Was there a person in the picture?","1","",""
"","","","","","survey-likert","46","137882","0.0-34.0","475B4B2C0E2B44BC8108A5A66BA2A882","475B4B2C0E2B44BC8108A5A66BA2A882","98724ecc-3bfb-42e7-8583-88d707385871","bea99957-1862-4ad8-9558-57b91e42ce64","{""participantId"":""475B4B2C0E2B44BC8108A5A66BA2A882"",""assignmentId"":""98724ecc-3bfb-42e7-8583-88d707385871"",""projectId"":""bea99957-1862-4ad8-9558-57b91e42ce64""}","https://test12345.live/?participantId=475B4B2C0E2B44BC8108A5A66BA2A882&assignmentId=98724ecc-3bfb-42e7-8583-88d707385871&projectId=bea99957-1862-4ad8-9558-57b91e42ce64","","2102","","{""Q0"":1}","","[0]"
"","","","","","html-button-response","47","138967","0.0-35.0","475B4B2C0E2B44BC8108A5A66BA2A882","475B4B2C0E2B44BC8108A5A66BA2A882","98724ecc-3bfb-42e7-8583-88d707385871","bea99957-1862-4ad8-9558-57b91e42ce64","{""participantId"":""475B4B2C0E2B44BC8108A5A66BA2A882"",""assignmentId"":""98724ecc-3bfb-42e7-8583-88d707385871"",""projectId"":""bea99957-1862-4ad8-9558-57b91e42ce64""}","https://test12345.live/?participantId=475B4B2C0E2B44BC8108A5A66BA2A882&assignmentId=98724ecc-3bfb-42e7-8583-88d707385871&projectId=bea99957-1862-4ad8-9558-57b91e42ce64","","1081","
    <div style=""display: flex; justify-content: center; align-items: center;"">
      <img src=""images/red_deck_2.png"" style=""width: 300px; height: 300px; margin-right: 10px;"" />
      <img src=""images/blue_deck_1.png"" style=""width: 300px; height: 300px;"" />
    </div>","0","0",""
"","","","","","html-keyboard-response","48","141991","0.0-37.0-0.0","475B4B2C0E2B44BC8108A5A66BA2A882","475B4B2C0E2B44BC8108A5A66BA2A882","98724ecc-3bfb-42e7-8583-88d707385871","bea99957-1862-4ad8-9558-57b91e42ce64","{""participantId"":""475B4B2C0E2B44BC8108A5A66BA2A882"",""assignmentId"":""98724ecc-3bfb-42e7-8583-88d707385871"",""projectId"":""bea99957-1862-4ad8-9558-57b91e42ce64""}","https://test12345.live/?participantId=475B4B2C0E2B44BC8108A5A66BA2A882&assignmentId=98724ecc-3bfb-42e7-8583-88d707385871&projectId=bea99957-1862-4ad8-9558-57b91e42ce64","","null","<div style=""display: flex; justify-content: center; align-items: center;"">
                    <img src=""images/semantic/semantic_series_11/semantic_series_11_a.jpg"" style=""width: 300px; height: 300px;"" />
                  </div>","null","",""
"","","","","","html-keyboard-response","49","144995","0.0-37.0-1.0","475B4B2C0E2B44BC8108A5A66BA2A882","475B4B2C0E2B44BC8108A5A66BA2A882","98724ecc-3bfb-42e7-8583-88d707385871","bea99957-1862-4ad8-9558-57b91e42ce64","{""participantId"":""475B4B2C0E2B44BC8108A5A66BA2A882"",""assignmentId"":""98724ecc-3bfb-42e7-8583-88d707385871"",""projectId"":""bea99957-1862-4ad8-9558-57b91e42ce64""}","https://test12345.live/?participantId=475B4B2C0E2B44BC8108A5A66BA2A882&assignmentId=98724ecc-3bfb-42e7-8583-88d707385871&projectId=bea99957-1862-4ad8-9558-57b91e42ce64","","null","<div style=""display: flex; justify-content: center; align-items: center;"">
                    <img src=""images/semantic/semantic_series_11/semantic_series_11_b.jpg"" style=""width: 300px; height: 300px;"" />
                  </div>","null","",""
"","","","","","html-keyboard-response","50","148003","0.0-37.0-2.0","475B4B2C0E2B44BC8108A5A66BA2A882","475B4B2C0E2B44BC8108A5A66BA2A882","98724ecc-3bfb-42e7-8583-88d707385871","bea99957-1862-4ad8-9558-57b91e42ce64","{""participantId"":""475B4B2C0E2B44BC8108A5A66BA2A882"",""assignmentId"":""98724ecc-3bfb-42e7-8583-88d707385871"",""projectId"":""bea99957-1862-4ad8-9558-57b91e42ce64""}","https://test12345.live/?participantId=475B4B2C0E2B44BC8108A5A66BA2A882&assignmentId=98724ecc-3bfb-42e7-8583-88d707385871&projectId=bea99957-1862-4ad8-9558-57b91e42ce64","","null","<div style=""display: flex; justify-content: center; align-items: center;"">
                    <img src=""images/semantic/semantic_series_11/semantic_series_11_c.jpg"" style=""width: 300px; height: 300px;"" />
                  </div>","null","",""
"","","","","","html-keyboard-response","51","151012","0.0-37.0-3.0","475B4B2C0E2B44BC8108A5A66BA2A882","475B4B2C0E2B44BC8108A5A66BA2A882","98724ecc-3bfb-42e7-8583-88d707385871","bea99957-1862-4ad8-9558-57b91e42ce64","{""participantId"":""475B4B2C0E2B44BC8108A5A66BA2A882"",""assignmentId"":""98724ecc-3bfb-42e7-8583-88d707385871"",""projectId"":""bea99957-1862-4ad8-9558-57b91e42ce64""}","https://test12345.live/?participantId=475B4B2C0E2B44BC8108A5A66BA2A882&assignmentId=98724ecc-3bfb-42e7-8583-88d707385871&projectId=bea99957-1862-4ad8-9558-57b91e42ce64","","null","<div style=""display: flex; justify-content: center; align-items: center;"">
                    <img src=""images/semantic/semantic_series_11/semantic_series_11_d.jpg"" style=""width: 300px; height: 300px;"" />
                  </div>","null","",""
"","","","","","html-button-response","52","152181","0.0-38.0","475B4B2C0E2B44BC8108A5A66BA2A882","475B4B2C0E2B44BC8108A5A66BA2A882","98724ecc-3bfb-42e7-8583-88d707385871","bea99957-1862-4ad8-9558-57b91e42ce64","{""participantId"":""475B4B2C0E2B44BC8108A5A66BA2A882"",""assignmentId"":""98724ecc-3bfb-42e7-8583-88d707385871"",""projectId"":""bea99957-1862-4ad8-9558-57b91e42ce64""}","https://test12345.live/?participantId=475B4B2C0E2B44BC8108A5A66BA2A882&assignmentId=98724ecc-3bfb-42e7-8583-88d707385871&projectId=bea99957-1862-4ad8-9558-57b91e42ce64","","1167","Was there a person in the picture?","1","",""
"","","","","","survey-likert","53","154464","0.0-39.0","475B4B2C0E2B44BC8108A5A66BA2A882","475B4B2C0E2B44BC8108A5A66BA2A882","98724ecc-3bfb-42e7-8583-88d707385871","bea99957-1862-4ad8-9558-57b91e42ce64","{""participantId"":""475B4B2C0E2B44BC8108A5A66BA2A882"",""assignmentId"":""98724ecc-3bfb-42e7-8583-88d707385871"",""projectId"":""bea99957-1862-4ad8-9558-57b91e42ce64""}","https://test12345.live/?participantId=475B4B2C0E2B44BC8108A5A66BA2A882&assignmentId=98724ecc-3bfb-42e7-8583-88d707385871&projectId=bea99957-1862-4ad8-9558-57b91e42ce64","","2281","","{""Q0"":1}","","[0]"
"","","","","","html-button-response","54","155497","0.0-40.0","475B4B2C0E2B44BC8108A5A66BA2A882","475B4B2C0E2B44BC8108A5A66BA2A882","98724ecc-3bfb-42e7-8583-88d707385871","bea99957-1862-4ad8-9558-57b91e42ce64","{""participantId"":""475B4B2C0E2B44BC8108A5A66BA2A882"",""assignmentId"":""98724ecc-3bfb-42e7-8583-88d707385871"",""projectId"":""bea99957-1862-4ad8-9558-57b91e42ce64""}","https://test12345.live/?participantId=475B4B2C0E2B44BC8108A5A66BA2A882&assignmentId=98724ecc-3bfb-42e7-8583-88d707385871&projectId=bea99957-1862-4ad8-9558-57b91e42ce64","","1030","
    <div style=""display: flex; justify-content: center; align-items: center;"">
      <img src=""images/red_deck_2.png"" style=""width: 300px; height: 300px; margin-right: 10px;"" />
      <img src=""images/blue_deck_1.png"" style=""width: 300px; height: 300px;"" />
    </div>","0","0",""
"","","","","","html-keyboard-response","55","158513","0.0-42.0-0.0","475B4B2C0E2B44BC8108A5A66BA2A882","475B4B2C0E2B44BC8108A5A66BA2A882","98724ecc-3bfb-42e7-8583-88d707385871","bea99957-1862-4ad8-9558-57b91e42ce64","{""participantId"":""475B4B2C0E2B44BC8108A5A66BA2A882"",""assignmentId"":""98724ecc-3bfb-42e7-8583-88d707385871"",""projectId"":""bea99957-1862-4ad8-9558-57b91e42ce64""}","https://test12345.live/?participantId=475B4B2C0E2B44BC8108A5A66BA2A882&assignmentId=98724ecc-3bfb-42e7-8583-88d707385871&projectId=bea99957-1862-4ad8-9558-57b91e42ce64","","null","<div style=""display: flex; justify-content: center; align-items: center;"">
                    <img src=""images/semantic/semantic_series_15/semantic_series_15_a.jpg"" style=""width: 300px; height: 300px;"" />
                  </div>","null","",""
"","","","","","html-keyboard-response","56","161515","0.0-42.0-1.0","475B4B2C0E2B44BC8108A5A66BA2A882","475B4B2C0E2B44BC8108A5A66BA2A882","98724ecc-3bfb-42e7-8583-88d707385871","bea99957-1862-4ad8-9558-57b91e42ce64","{""participantId"":""475B4B2C0E2B44BC8108A5A66BA2A882"",""assignmentId"":""98724ecc-3bfb-42e7-8583-88d707385871"",""projectId"":""bea99957-1862-4ad8-9558-57b91e42ce64""}","https://test12345.live/?participantId=475B4B2C0E2B44BC8108A5A66BA2A882&assignmentId=98724ecc-3bfb-42e7-8583-88d707385871&projectId=bea99957-1862-4ad8-9558-57b91e42ce64","","null","<div style=""display: flex; justify-content: center; align-items: center;"">
                    <img src=""images/semantic/semantic_series_15/semantic_series_15_b.jpg"" style=""width: 300px; height: 300px;"" />
                  </div>","null","",""
"","","","","","html-keyboard-response","57","164517","0.0-42.0-2.0","475B4B2C0E2B44BC8108A5A66BA2A882","475B4B2C0E2B44BC8108A5A66BA2A882","98724ecc-3bfb-42e7-8583-88d707385871","bea99957-1862-4ad8-9558-57b91e42ce64","{""participantId"":""475B4B2C0E2B44BC8108A5A66BA2A882"",""assignmentId"":""98724ecc-3bfb-42e7-8583-88d707385871"",""projectId"":""bea99957-1862-4ad8-9558-57b91e42ce64""}","https://test12345.live/?participantId=475B4B2C0E2B44BC8108A5A66BA2A882&assignmentId=98724ecc-3bfb-42e7-8583-88d707385871&projectId=bea99957-1862-4ad8-9558-57b91e42ce64","","null","<div style=""display: flex; justify-content: center; align-items: center;"">
                    <img src=""images/semantic/semantic_series_15/semantic_series_15_c.jpg"" style=""width: 300px; height: 300px;"" />
                  </div>","null","",""
"","","","","","html-keyboard-response","58","167530","0.0-42.0-3.0","475B4B2C0E2B44BC8108A5A66BA2A882","475B4B2C0E2B44BC8108A5A66BA2A882","98724ecc-3bfb-42e7-8583-88d707385871","bea99957-1862-4ad8-9558-57b91e42ce64","{""participantId"":""475B4B2C0E2B44BC8108A5A66BA2A882"",""assignmentId"":""98724ecc-3bfb-42e7-8583-88d707385871"",""projectId"":""bea99957-1862-4ad8-9558-57b91e42ce64""}","https://test12345.live/?participantId=475B4B2C0E2B44BC8108A5A66BA2A882&assignmentId=98724ecc-3bfb-42e7-8583-88d707385871&projectId=bea99957-1862-4ad8-9558-57b91e42ce64","","null","<div style=""display: flex; justify-content: center; align-items: center;"">
                    <img src=""images/semantic/semantic_series_15/semantic_series_15_d.jpg"" style=""width: 300px; height: 300px;"" />
                  </div>","null","",""
"","","","","","html-button-response","59","169654","0.0-43.0","475B4B2C0E2B44BC8108A5A66BA2A882","475B4B2C0E2B44BC8108A5A66BA2A882","98724ecc-3bfb-42e7-8583-88d707385871","bea99957-1862-4ad8-9558-57b91e42ce64","{""participantId"":""475B4B2C0E2B44BC8108A5A66BA2A882"",""assignmentId"":""98724ecc-3bfb-42e7-8583-88d707385871"",""projectId"":""bea99957-1862-4ad8-9558-57b91e42ce64""}","https://test12345.live/?participantId=475B4B2C0E2B44BC8108A5A66BA2A882&assignmentId=98724ecc-3bfb-42e7-8583-88d707385871&projectId=bea99957-1862-4ad8-9558-57b91e42ce64","","2122","Was there a person in the picture?","1","",""
"","","","","","survey-likert","60","172067","0.0-44.0","475B4B2C0E2B44BC8108A5A66BA2A882","475B4B2C0E2B44BC8108A5A66BA2A882","98724ecc-3bfb-42e7-8583-88d707385871","bea99957-1862-4ad8-9558-57b91e42ce64","{""participantId"":""475B4B2C0E2B44BC8108A5A66BA2A882"",""assignmentId"":""98724ecc-3bfb-42e7-8583-88d707385871"",""projectId"":""bea99957-1862-4ad8-9558-57b91e42ce64""}","https://test12345.live/?participantId=475B4B2C0E2B44BC8108A5A66BA2A882&assignmentId=98724ecc-3bfb-42e7-8583-88d707385871&projectId=bea99957-1862-4ad8-9558-57b91e42ce64","","2411","","{""Q0"":1}","","[0]"
"","","","","","html-button-response","61","173024","0.0-45.0","475B4B2C0E2B44BC8108A5A66BA2A882","475B4B2C0E2B44BC8108A5A66BA2A882","98724ecc-3bfb-42e7-8583-88d707385871","bea99957-1862-4ad8-9558-57b91e42ce64","{""participantId"":""475B4B2C0E2B44BC8108A5A66BA2A882"",""assignmentId"":""98724ecc-3bfb-42e7-8583-88d707385871"",""projectId"":""bea99957-1862-4ad8-9558-57b91e42ce64""}","https://test12345.live/?participantId=475B4B2C0E2B44BC8108A5A66BA2A882&assignmentId=98724ecc-3bfb-42e7-8583-88d707385871&projectId=bea99957-1862-4ad8-9558-57b91e42ce64","","954","
    <div style=""display: flex; justify-content: center; align-items: center;"">
      <img src=""images/red_deck_2.png"" style=""width: 300px; height: 300px; margin-right: 10px;"" />
      <img src=""images/blue_deck_1.png"" style=""width: 300px; height: 300px;"" />
    </div>","1","1",""
"","","","","","html-keyboard-response","62","176034","0.0-46.0-0.0","475B4B2C0E2B44BC8108A5A66BA2A882","475B4B2C0E2B44BC8108A5A66BA2A882","98724ecc-3bfb-42e7-8583-88d707385871","bea99957-1862-4ad8-9558-57b91e42ce64","{""participantId"":""475B4B2C0E2B44BC8108A5A66BA2A882"",""assignmentId"":""98724ecc-3bfb-42e7-8583-88d707385871"",""projectId"":""bea99957-1862-4ad8-9558-57b91e42ce64""}","https://test12345.live/?participantId=475B4B2C0E2B44BC8108A5A66BA2A882&assignmentId=98724ecc-3bfb-42e7-8583-88d707385871&projectId=bea99957-1862-4ad8-9558-57b91e42ce64","","null","<div style=""display: flex; justify-content: center; align-items: center;"">
                    <img src=""images/causal/causal_series_5/causal_series_5_a.jpg"" style=""width: 300px; height: 300px;"" />
                  </div>","null","",""
"","","","","","html-keyboard-response","63","179049","0.0-46.0-1.0","475B4B2C0E2B44BC8108A5A66BA2A882","475B4B2C0E2B44BC8108A5A66BA2A882","98724ecc-3bfb-42e7-8583-88d707385871","bea99957-1862-4ad8-9558-57b91e42ce64","{""participantId"":""475B4B2C0E2B44BC8108A5A66BA2A882"",""assignmentId"":""98724ecc-3bfb-42e7-8583-88d707385871"",""projectId"":""bea99957-1862-4ad8-9558-57b91e42ce64""}","https://test12345.live/?participantId=475B4B2C0E2B44BC8108A5A66BA2A882&assignmentId=98724ecc-3bfb-42e7-8583-88d707385871&projectId=bea99957-1862-4ad8-9558-57b91e42ce64","","null","<div style=""display: flex; justify-content: center; align-items: center;"">
                    <img src=""images/causal/causal_series_5/causal_series_5_b.jpg"" style=""width: 300px; height: 300px;"" />
                  </div>","null","",""
"","","","","","html-keyboard-response","64","182052","0.0-46.0-2.0","475B4B2C0E2B44BC8108A5A66BA2A882","475B4B2C0E2B44BC8108A5A66BA2A882","98724ecc-3bfb-42e7-8583-88d707385871","bea99957-1862-4ad8-9558-57b91e42ce64","{""participantId"":""475B4B2C0E2B44BC8108A5A66BA2A882"",""assignmentId"":""98724ecc-3bfb-42e7-8583-88d707385871"",""projectId"":""bea99957-1862-4ad8-9558-57b91e42ce64""}","https://test12345.live/?participantId=475B4B2C0E2B44BC8108A5A66BA2A882&assignmentId=98724ecc-3bfb-42e7-8583-88d707385871&projectId=bea99957-1862-4ad8-9558-57b91e42ce64","","null","<div style=""display: flex; justify-content: center; align-items: center;"">
                    <img src=""images/causal/causal_series_5/causal_series_5_c.jpg"" style=""width: 300px; height: 300px;"" />
                  </div>","null","",""
"","","","","","html-keyboard-response","65","185056","0.0-46.0-3.0","475B4B2C0E2B44BC8108A5A66BA2A882","475B4B2C0E2B44BC8108A5A66BA2A882","98724ecc-3bfb-42e7-8583-88d707385871","bea99957-1862-4ad8-9558-57b91e42ce64","{""participantId"":""475B4B2C0E2B44BC8108A5A66BA2A882"",""assignmentId"":""98724ecc-3bfb-42e7-8583-88d707385871"",""projectId"":""bea99957-1862-4ad8-9558-57b91e42ce64""}","https://test12345.live/?participantId=475B4B2C0E2B44BC8108A5A66BA2A882&assignmentId=98724ecc-3bfb-42e7-8583-88d707385871&projectId=bea99957-1862-4ad8-9558-57b91e42ce64","","null","<div style=""display: flex; justify-content: center; align-items: center;"">
                    <img src=""images/causal/causal_series_5/causal_series_5_d.jpg"" style=""width: 300px; height: 300px;"" />
                  </div>","null","",""
"","","","","","html-button-response","66","186165","0.0-48.0","475B4B2C0E2B44BC8108A5A66BA2A882","475B4B2C0E2B44BC8108A5A66BA2A882","98724ecc-3bfb-42e7-8583-88d707385871","bea99957-1862-4ad8-9558-57b91e42ce64","{""participantId"":""475B4B2C0E2B44BC8108A5A66BA2A882"",""assignmentId"":""98724ecc-3bfb-42e7-8583-88d707385871"",""projectId"":""bea99957-1862-4ad8-9558-57b91e42ce64""}","https://test12345.live/?participantId=475B4B2C0E2B44BC8108A5A66BA2A882&assignmentId=98724ecc-3bfb-42e7-8583-88d707385871&projectId=bea99957-1862-4ad8-9558-57b91e42ce64","","1107","Was there a person in the picture?","0","",""
"","","","","","survey-likert","67","187854","0.0-49.0","475B4B2C0E2B44BC8108A5A66BA2A882","475B4B2C0E2B44BC8108A5A66BA2A882","98724ecc-3bfb-42e7-8583-88d707385871","bea99957-1862-4ad8-9558-57b91e42ce64","{""participantId"":""475B4B2C0E2B44BC8108A5A66BA2A882"",""assignmentId"":""98724ecc-3bfb-42e7-8583-88d707385871"",""projectId"":""bea99957-1862-4ad8-9558-57b91e42ce64""}","https://test12345.live/?participantId=475B4B2C0E2B44BC8108A5A66BA2A882&assignmentId=98724ecc-3bfb-42e7-8583-88d707385871&projectId=bea99957-1862-4ad8-9558-57b91e42ce64","","1687","","{""Q0"":2}","","[0]"
"","","","","","html-button-response","68","188895","0.0-50.0","475B4B2C0E2B44BC8108A5A66BA2A882","475B4B2C0E2B44BC8108A5A66BA2A882","98724ecc-3bfb-42e7-8583-88d707385871","bea99957-1862-4ad8-9558-57b91e42ce64","{""participantId"":""475B4B2C0E2B44BC8108A5A66BA2A882"",""assignmentId"":""98724ecc-3bfb-42e7-8583-88d707385871"",""projectId"":""bea99957-1862-4ad8-9558-57b91e42ce64""}","https://test12345.live/?participantId=475B4B2C0E2B44BC8108A5A66BA2A882&assignmentId=98724ecc-3bfb-42e7-8583-88d707385871&projectId=bea99957-1862-4ad8-9558-57b91e42ce64","","1037","
    <div style=""display: flex; justify-content: center; align-items: center;"">
      <img src=""images/red_deck_2.png"" style=""width: 300px; height: 300px; margin-right: 10px;"" />
      <img src=""images/blue_deck_1.png"" style=""width: 300px; height: 300px;"" />
    </div>","1","1",""
"","","","","","html-keyboard-response","69","191908","0.0-51.0-0.0","475B4B2C0E2B44BC8108A5A66BA2A882","475B4B2C0E2B44BC8108A5A66BA2A882","98724ecc-3bfb-42e7-8583-88d707385871","bea99957-1862-4ad8-9558-57b91e42ce64","{""participantId"":""475B4B2C0E2B44BC8108A5A66BA2A882"",""assignmentId"":""98724ecc-3bfb-42e7-8583-88d707385871"",""projectId"":""bea99957-1862-4ad8-9558-57b91e42ce64""}","https://test12345.live/?participantId=475B4B2C0E2B44BC8108A5A66BA2A882&assignmentId=98724ecc-3bfb-42e7-8583-88d707385871&projectId=bea99957-1862-4ad8-9558-57b91e42ce64","","null","<div style=""display: flex; justify-content: center; align-items: center;"">
                    <img src=""images/causal/causal_series_2/causal_series_2_a.jpg"" style=""width: 300px; height: 300px;"" />
                  </div>","null","",""
"","","","","","html-keyboard-response","70","194914","0.0-51.0-1.0","475B4B2C0E2B44BC8108A5A66BA2A882","475B4B2C0E2B44BC8108A5A66BA2A882","98724ecc-3bfb-42e7-8583-88d707385871","bea99957-1862-4ad8-9558-57b91e42ce64","{""participantId"":""475B4B2C0E2B44BC8108A5A66BA2A882"",""assignmentId"":""98724ecc-3bfb-42e7-8583-88d707385871"",""projectId"":""bea99957-1862-4ad8-9558-57b91e42ce64""}","https://test12345.live/?participantId=475B4B2C0E2B44BC8108A5A66BA2A882&assignmentId=98724ecc-3bfb-42e7-8583-88d707385871&projectId=bea99957-1862-4ad8-9558-57b91e42ce64","","null","<div style=""display: flex; justify-content: center; align-items: center;"">
                    <img src=""images/causal/causal_series_2/causal_series_2_b.jpg"" style=""width: 300px; height: 300px;"" />
                  </div>","null","",""
"","","","","","html-keyboard-response","71","197924","0.0-51.0-2.0","475B4B2C0E2B44BC8108A5A66BA2A882","475B4B2C0E2B44BC8108A5A66BA2A882","98724ecc-3bfb-42e7-8583-88d707385871","bea99957-1862-4ad8-9558-57b91e42ce64","{""participantId"":""475B4B2C0E2B44BC8108A5A66BA2A882"",""assignmentId"":""98724ecc-3bfb-42e7-8583-88d707385871"",""projectId"":""bea99957-1862-4ad8-9558-57b91e42ce64""}","https://test12345.live/?participantId=475B4B2C0E2B44BC8108A5A66BA2A882&assignmentId=98724ecc-3bfb-42e7-8583-88d707385871&projectId=bea99957-1862-4ad8-9558-57b91e42ce64","","null","<div style=""display: flex; justify-content: center; align-items: center;"">
                    <img src=""images/causal/causal_series_2/causal_series_2_c.jpg"" style=""width: 300px; height: 300px;"" />
                  </div>","null","",""
"","","","","","html-keyboard-response","72","200932","0.0-51.0-3.0","475B4B2C0E2B44BC8108A5A66BA2A882","475B4B2C0E2B44BC8108A5A66BA2A882","98724ecc-3bfb-42e7-8583-88d707385871","bea99957-1862-4ad8-9558-57b91e42ce64","{""participantId"":""475B4B2C0E2B44BC8108A5A66BA2A882"",""assignmentId"":""98724ecc-3bfb-42e7-8583-88d707385871"",""projectId"":""bea99957-1862-4ad8-9558-57b91e42ce64""}","https://test12345.live/?participantId=475B4B2C0E2B44BC8108A5A66BA2A882&assignmentId=98724ecc-3bfb-42e7-8583-88d707385871&projectId=bea99957-1862-4ad8-9558-57b91e42ce64","","null","<div style=""display: flex; justify-content: center; align-items: center;"">
                    <img src=""images/causal/causal_series_2/causal_series_2_d.jpg"" style=""width: 300px; height: 300px;"" />
                  </div>","null","",""
"","","","","","html-button-response","73","201917","0.0-53.0","475B4B2C0E2B44BC8108A5A66BA2A882","475B4B2C0E2B44BC8108A5A66BA2A882","98724ecc-3bfb-42e7-8583-88d707385871","bea99957-1862-4ad8-9558-57b91e42ce64","{""participantId"":""475B4B2C0E2B44BC8108A5A66BA2A882"",""assignmentId"":""98724ecc-3bfb-42e7-8583-88d707385871"",""projectId"":""bea99957-1862-4ad8-9558-57b91e42ce64""}","https://test12345.live/?participantId=475B4B2C0E2B44BC8108A5A66BA2A882&assignmentId=98724ecc-3bfb-42e7-8583-88d707385871&projectId=bea99957-1862-4ad8-9558-57b91e42ce64","","982","Was there a person in the picture?","0","",""
"","","","","","survey-likert","74","203814","0.0-54.0","475B4B2C0E2B44BC8108A5A66BA2A882","475B4B2C0E2B44BC8108A5A66BA2A882","98724ecc-3bfb-42e7-8583-88d707385871","bea99957-1862-4ad8-9558-57b91e42ce64","{""participantId"":""475B4B2C0E2B44BC8108A5A66BA2A882"",""assignmentId"":""98724ecc-3bfb-42e7-8583-88d707385871"",""projectId"":""bea99957-1862-4ad8-9558-57b91e42ce64""}","https://test12345.live/?participantId=475B4B2C0E2B44BC8108A5A66BA2A882&assignmentId=98724ecc-3bfb-42e7-8583-88d707385871&projectId=bea99957-1862-4ad8-9558-57b91e42ce64","","1895","","{""Q0"":1}","","[0]"
"","","","","","html-button-response","75","204866","0.0-55.0","475B4B2C0E2B44BC8108A5A66BA2A882","475B4B2C0E2B44BC8108A5A66BA2A882","98724ecc-3bfb-42e7-8583-88d707385871","bea99957-1862-4ad8-9558-57b91e42ce64","{""participantId"":""475B4B2C0E2B44BC8108A5A66BA2A882"",""assignmentId"":""98724ecc-3bfb-42e7-8583-88d707385871"",""projectId"":""bea99957-1862-4ad8-9558-57b91e42ce64""}","https://test12345.live/?participantId=475B4B2C0E2B44BC8108A5A66BA2A882&assignmentId=98724ecc-3bfb-42e7-8583-88d707385871&projectId=bea99957-1862-4ad8-9558-57b91e42ce64","","1048","
    <div style=""display: flex; justify-content: center; align-items: center;"">
      <img src=""images/red_deck_2.png"" style=""width: 300px; height: 300px; margin-right: 10px;"" />
      <img src=""images/blue_deck_1.png"" style=""width: 300px; height: 300px;"" />
    </div>","1","1",""
"","","","","","html-keyboard-response","76","207869","0.0-56.0-0.0","475B4B2C0E2B44BC8108A5A66BA2A882","475B4B2C0E2B44BC8108A5A66BA2A882","98724ecc-3bfb-42e7-8583-88d707385871","bea99957-1862-4ad8-9558-57b91e42ce64","{""participantId"":""475B4B2C0E2B44BC8108A5A66BA2A882"",""assignmentId"":""98724ecc-3bfb-42e7-8583-88d707385871"",""projectId"":""bea99957-1862-4ad8-9558-57b91e42ce64""}","https://test12345.live/?participantId=475B4B2C0E2B44BC8108A5A66BA2A882&assignmentId=98724ecc-3bfb-42e7-8583-88d707385871&projectId=bea99957-1862-4ad8-9558-57b91e42ce64","","null","<div style=""display: flex; justify-content: center; align-items: center;"">
                    <img src=""images/causal/causal_series_3/causal_series_3_a.jpg"" style=""width: 300px; height: 300px;"" />
                  </div>","null","",""
"","","","","","html-keyboard-response","77","210878","0.0-56.0-1.0","475B4B2C0E2B44BC8108A5A66BA2A882","475B4B2C0E2B44BC8108A5A66BA2A882","98724ecc-3bfb-42e7-8583-88d707385871","bea99957-1862-4ad8-9558-57b91e42ce64","{""participantId"":""475B4B2C0E2B44BC8108A5A66BA2A882"",""assignmentId"":""98724ecc-3bfb-42e7-8583-88d707385871"",""projectId"":""bea99957-1862-4ad8-9558-57b91e42ce64""}","https://test12345.live/?participantId=475B4B2C0E2B44BC8108A5A66BA2A882&assignmentId=98724ecc-3bfb-42e7-8583-88d707385871&projectId=bea99957-1862-4ad8-9558-57b91e42ce64","","null","<div style=""display: flex; justify-content: center; align-items: center;"">
                    <img src=""images/causal/causal_series_3/causal_series_3_b.jpg"" style=""width: 300px; height: 300px;"" />
                  </div>","null","",""
"","","","","","html-keyboard-response","78","213886","0.0-56.0-2.0","475B4B2C0E2B44BC8108A5A66BA2A882","475B4B2C0E2B44BC8108A5A66BA2A882","98724ecc-3bfb-42e7-8583-88d707385871","bea99957-1862-4ad8-9558-57b91e42ce64","{""participantId"":""475B4B2C0E2B44BC8108A5A66BA2A882"",""assignmentId"":""98724ecc-3bfb-42e7-8583-88d707385871"",""projectId"":""bea99957-1862-4ad8-9558-57b91e42ce64""}","https://test12345.live/?participantId=475B4B2C0E2B44BC8108A5A66BA2A882&assignmentId=98724ecc-3bfb-42e7-8583-88d707385871&projectId=bea99957-1862-4ad8-9558-57b91e42ce64","","null","<div style=""display: flex; justify-content: center; align-items: center;"">
                    <img src=""images/causal/causal_series_3/causal_series_3_c.jpg"" style=""width: 300px; height: 300px;"" />
                  </div>","null","",""
"","","","","","html-keyboard-response","79","216903","0.0-56.0-3.0","475B4B2C0E2B44BC8108A5A66BA2A882","475B4B2C0E2B44BC8108A5A66BA2A882","98724ecc-3bfb-42e7-8583-88d707385871","bea99957-1862-4ad8-9558-57b91e42ce64","{""participantId"":""475B4B2C0E2B44BC8108A5A66BA2A882"",""assignmentId"":""98724ecc-3bfb-42e7-8583-88d707385871"",""projectId"":""bea99957-1862-4ad8-9558-57b91e42ce64""}","https://test12345.live/?participantId=475B4B2C0E2B44BC8108A5A66BA2A882&assignmentId=98724ecc-3bfb-42e7-8583-88d707385871&projectId=bea99957-1862-4ad8-9558-57b91e42ce64","","null","<div style=""display: flex; justify-content: center; align-items: center;"">
                    <img src=""images/causal/causal_series_3/causal_series_3_d.jpg"" style=""width: 300px; height: 300px;"" />
                  </div>","null","",""
"","","","","","html-button-response","80","218123","0.0-58.0","475B4B2C0E2B44BC8108A5A66BA2A882","475B4B2C0E2B44BC8108A5A66BA2A882","98724ecc-3bfb-42e7-8583-88d707385871","bea99957-1862-4ad8-9558-57b91e42ce64","{""participantId"":""475B4B2C0E2B44BC8108A5A66BA2A882"",""assignmentId"":""98724ecc-3bfb-42e7-8583-88d707385871"",""projectId"":""bea99957-1862-4ad8-9558-57b91e42ce64""}","https://test12345.live/?participantId=475B4B2C0E2B44BC8108A5A66BA2A882&assignmentId=98724ecc-3bfb-42e7-8583-88d707385871&projectId=bea99957-1862-4ad8-9558-57b91e42ce64","","1219","Was there a person in the picture?","0","",""
"","","","","","survey-likert","81","219609","0.0-59.0","475B4B2C0E2B44BC8108A5A66BA2A882","475B4B2C0E2B44BC8108A5A66BA2A882","98724ecc-3bfb-42e7-8583-88d707385871","bea99957-1862-4ad8-9558-57b91e42ce64","{""participantId"":""475B4B2C0E2B44BC8108A5A66BA2A882"",""assignmentId"":""98724ecc-3bfb-42e7-8583-88d707385871"",""projectId"":""bea99957-1862-4ad8-9558-57b91e42ce64""}","https://test12345.live/?participantId=475B4B2C0E2B44BC8108A5A66BA2A882&assignmentId=98724ecc-3bfb-42e7-8583-88d707385871&projectId=bea99957-1862-4ad8-9558-57b91e42ce64","","1484","","{""Q0"":1}","","[0]"
"","","","","","html-button-response","82","220571","0.0-60.0","475B4B2C0E2B44BC8108A5A66BA2A882","475B4B2C0E2B44BC8108A5A66BA2A882","98724ecc-3bfb-42e7-8583-88d707385871","bea99957-1862-4ad8-9558-57b91e42ce64","{""participantId"":""475B4B2C0E2B44BC8108A5A66BA2A882"",""assignmentId"":""98724ecc-3bfb-42e7-8583-88d707385871"",""projectId"":""bea99957-1862-4ad8-9558-57b91e42ce64""}","https://test12345.live/?participantId=475B4B2C0E2B44BC8108A5A66BA2A882&assignmentId=98724ecc-3bfb-42e7-8583-88d707385871&projectId=bea99957-1862-4ad8-9558-57b91e42ce64","","958","
    <div style=""display: flex; justify-content: center; align-items: center;"">
      <img src=""images/red_deck_2.png"" style=""width: 300px; height: 300px; margin-right: 10px;"" />
      <img src=""images/blue_deck_1.png"" style=""width: 300px; height: 300px;"" />
    </div>","1","1",""
"","","","","","html-keyboard-response","83","223584","0.0-61.0-0.0","475B4B2C0E2B44BC8108A5A66BA2A882","475B4B2C0E2B44BC8108A5A66BA2A882","98724ecc-3bfb-42e7-8583-88d707385871","bea99957-1862-4ad8-9558-57b91e42ce64","{""participantId"":""475B4B2C0E2B44BC8108A5A66BA2A882"",""assignmentId"":""98724ecc-3bfb-42e7-8583-88d707385871"",""projectId"":""bea99957-1862-4ad8-9558-57b91e42ce64""}","https://test12345.live/?participantId=475B4B2C0E2B44BC8108A5A66BA2A882&assignmentId=98724ecc-3bfb-42e7-8583-88d707385871&projectId=bea99957-1862-4ad8-9558-57b91e42ce64","","null","<div style=""display: flex; justify-content: center; align-items: center;"">
                    <img src=""images/causal/causal_series_17/causal_series_17_a.jpg"" style=""width: 300px; height: 300px;"" />
                  </div>","null","",""
"","","","","","html-keyboard-response","84","226593","0.0-61.0-1.0","475B4B2C0E2B44BC8108A5A66BA2A882","475B4B2C0E2B44BC8108A5A66BA2A882","98724ecc-3bfb-42e7-8583-88d707385871","bea99957-1862-4ad8-9558-57b91e42ce64","{""participantId"":""475B4B2C0E2B44BC8108A5A66BA2A882"",""assignmentId"":""98724ecc-3bfb-42e7-8583-88d707385871"",""projectId"":""bea99957-1862-4ad8-9558-57b91e42ce64""}","https://test12345.live/?participantId=475B4B2C0E2B44BC8108A5A66BA2A882&assignmentId=98724ecc-3bfb-42e7-8583-88d707385871&projectId=bea99957-1862-4ad8-9558-57b91e42ce64","","null","<div style=""display: flex; justify-content: center; align-items: center;"">
                    <img src=""images/causal/causal_series_17/causal_series_17_b.jpg"" style=""width: 300px; height: 300px;"" />
                  </div>","null","",""
"","","","","","html-keyboard-response","85","229617","0.0-61.0-2.0","475B4B2C0E2B44BC8108A5A66BA2A882","475B4B2C0E2B44BC8108A5A66BA2A882","98724ecc-3bfb-42e7-8583-88d707385871","bea99957-1862-4ad8-9558-57b91e42ce64","{""participantId"":""475B4B2C0E2B44BC8108A5A66BA2A882"",""assignmentId"":""98724ecc-3bfb-42e7-8583-88d707385871"",""projectId"":""bea99957-1862-4ad8-9558-57b91e42ce64""}","https://test12345.live/?participantId=475B4B2C0E2B44BC8108A5A66BA2A882&assignmentId=98724ecc-3bfb-42e7-8583-88d707385871&projectId=bea99957-1862-4ad8-9558-57b91e42ce64","","null","<div style=""display: flex; justify-content: center; align-items: center;"">
                    <img src=""images/causal/causal_series_17/causal_series_17_c.jpg"" style=""width: 300px; height: 300px;"" />
                  </div>","null","",""
"","","","","","html-keyboard-response","86","232623","0.0-61.0-3.0","475B4B2C0E2B44BC8108A5A66BA2A882","475B4B2C0E2B44BC8108A5A66BA2A882","98724ecc-3bfb-42e7-8583-88d707385871","bea99957-1862-4ad8-9558-57b91e42ce64","{""participantId"":""475B4B2C0E2B44BC8108A5A66BA2A882"",""assignmentId"":""98724ecc-3bfb-42e7-8583-88d707385871"",""projectId"":""bea99957-1862-4ad8-9558-57b91e42ce64""}","https://test12345.live/?participantId=475B4B2C0E2B44BC8108A5A66BA2A882&assignmentId=98724ecc-3bfb-42e7-8583-88d707385871&projectId=bea99957-1862-4ad8-9558-57b91e42ce64","","null","<div style=""display: flex; justify-content: center; align-items: center;"">
                    <img src=""images/causal/causal_series_17/causal_series_17_d.jpg"" style=""width: 300px; height: 300px;"" />
                  </div>","null","",""
"","","","","","html-button-response","87","233825","0.0-63.0","475B4B2C0E2B44BC8108A5A66BA2A882","475B4B2C0E2B44BC8108A5A66BA2A882","98724ecc-3bfb-42e7-8583-88d707385871","bea99957-1862-4ad8-9558-57b91e42ce64","{""participantId"":""475B4B2C0E2B44BC8108A5A66BA2A882"",""assignmentId"":""98724ecc-3bfb-42e7-8583-88d707385871"",""projectId"":""bea99957-1862-4ad8-9558-57b91e42ce64""}","https://test12345.live/?participantId=475B4B2C0E2B44BC8108A5A66BA2A882&assignmentId=98724ecc-3bfb-42e7-8583-88d707385871&projectId=bea99957-1862-4ad8-9558-57b91e42ce64","","1201","Was there a person in the picture?","0","",""
"","","","","","survey-likert","88","236771","0.0-64.0","475B4B2C0E2B44BC8108A5A66BA2A882","475B4B2C0E2B44BC8108A5A66BA2A882","98724ecc-3bfb-42e7-8583-88d707385871","bea99957-1862-4ad8-9558-57b91e42ce64","{""participantId"":""475B4B2C0E2B44BC8108A5A66BA2A882"",""assignmentId"":""98724ecc-3bfb-42e7-8583-88d707385871"",""projectId"":""bea99957-1862-4ad8-9558-57b91e42ce64""}","https://test12345.live/?participantId=475B4B2C0E2B44BC8108A5A66BA2A882&assignmentId=98724ecc-3bfb-42e7-8583-88d707385871&projectId=bea99957-1862-4ad8-9558-57b91e42ce64","","2944","","{""Q0"":3}","","[0]"
"","","","","","html-button-response","89","238987","0.0-65.0","475B4B2C0E2B44BC8108A5A66BA2A882","475B4B2C0E2B44BC8108A5A66BA2A882","98724ecc-3bfb-42e7-8583-88d707385871","bea99957-1862-4ad8-9558-57b91e42ce64","{""participantId"":""475B4B2C0E2B44BC8108A5A66BA2A882"",""assignmentId"":""98724ecc-3bfb-42e7-8583-88d707385871"",""projectId"":""bea99957-1862-4ad8-9558-57b91e42ce64""}","https://test12345.live/?participantId=475B4B2C0E2B44BC8108A5A66BA2A882&assignmentId=98724ecc-3bfb-42e7-8583-88d707385871&projectId=bea99957-1862-4ad8-9558-57b91e42ce64","","2211","
    <div style=""display: flex; justify-content: center; align-items: center;"">
      <img src=""images/red_deck_2.png"" style=""width: 300px; height: 300px; margin-right: 10px;"" />
      <img src=""images/blue_deck_1.png"" style=""width: 300px; height: 300px;"" />
    </div>","1","1",""
"","","","","","html-keyboard-response","90","241992","0.0-66.0-0.0","475B4B2C0E2B44BC8108A5A66BA2A882","475B4B2C0E2B44BC8108A5A66BA2A882","98724ecc-3bfb-42e7-8583-88d707385871","bea99957-1862-4ad8-9558-57b91e42ce64","{""participantId"":""475B4B2C0E2B44BC8108A5A66BA2A882"",""assignmentId"":""98724ecc-3bfb-42e7-8583-88d707385871"",""projectId"":""bea99957-1862-4ad8-9558-57b91e42ce64""}","https://test12345.live/?participantId=475B4B2C0E2B44BC8108A5A66BA2A882&assignmentId=98724ecc-3bfb-42e7-8583-88d707385871&projectId=bea99957-1862-4ad8-9558-57b91e42ce64","","null","<div style=""display: flex; justify-content: center; align-items: center;"">
                    <img src=""images/causal/causal_series_4/causal_series_4_a.jpg"" style=""width: 300px; height: 300px;"" />
                  </div>","null","",""
"","","","","","html-keyboard-response","91","245021","0.0-66.0-1.0","475B4B2C0E2B44BC8108A5A66BA2A882","475B4B2C0E2B44BC8108A5A66BA2A882","98724ecc-3bfb-42e7-8583-88d707385871","bea99957-1862-4ad8-9558-57b91e42ce64","{""participantId"":""475B4B2C0E2B44BC8108A5A66BA2A882"",""assignmentId"":""98724ecc-3bfb-42e7-8583-88d707385871"",""projectId"":""bea99957-1862-4ad8-9558-57b91e42ce64""}","https://test12345.live/?participantId=475B4B2C0E2B44BC8108A5A66BA2A882&assignmentId=98724ecc-3bfb-42e7-8583-88d707385871&projectId=bea99957-1862-4ad8-9558-57b91e42ce64","","null","<div style=""display: flex; justify-content: center; align-items: center;"">
                    <img src=""images/causal/causal_series_4/causal_series_4_b.jpg"" style=""width: 300px; height: 300px;"" />
                  </div>","null","",""
"","","","","","html-keyboard-response","92","248038","0.0-66.0-2.0","475B4B2C0E2B44BC8108A5A66BA2A882","475B4B2C0E2B44BC8108A5A66BA2A882","98724ecc-3bfb-42e7-8583-88d707385871","bea99957-1862-4ad8-9558-57b91e42ce64","{""participantId"":""475B4B2C0E2B44BC8108A5A66BA2A882"",""assignmentId"":""98724ecc-3bfb-42e7-8583-88d707385871"",""projectId"":""bea99957-1862-4ad8-9558-57b91e42ce64""}","https://test12345.live/?participantId=475B4B2C0E2B44BC8108A5A66BA2A882&assignmentId=98724ecc-3bfb-42e7-8583-88d707385871&projectId=bea99957-1862-4ad8-9558-57b91e42ce64","","null","<div style=""display: flex; justify-content: center; align-items: center;"">
                    <img src=""images/causal/causal_series_4/causal_series_4_c.jpg"" style=""width: 300px; height: 300px;"" />
                  </div>","null","",""
"","","","","","html-keyboard-response","93","251051","0.0-66.0-3.0","475B4B2C0E2B44BC8108A5A66BA2A882","475B4B2C0E2B44BC8108A5A66BA2A882","98724ecc-3bfb-42e7-8583-88d707385871","bea99957-1862-4ad8-9558-57b91e42ce64","{""participantId"":""475B4B2C0E2B44BC8108A5A66BA2A882"",""assignmentId"":""98724ecc-3bfb-42e7-8583-88d707385871"",""projectId"":""bea99957-1862-4ad8-9558-57b91e42ce64""}","https://test12345.live/?participantId=475B4B2C0E2B44BC8108A5A66BA2A882&assignmentId=98724ecc-3bfb-42e7-8583-88d707385871&projectId=bea99957-1862-4ad8-9558-57b91e42ce64","","null","<div style=""display: flex; justify-content: center; align-items: center;"">
                    <img src=""images/causal/causal_series_4/causal_series_4_d.jpg"" style=""width: 300px; height: 300px;"" />
                  </div>","null","",""
"","","","","","html-button-response","94","252921","0.0-68.0","475B4B2C0E2B44BC8108A5A66BA2A882","475B4B2C0E2B44BC8108A5A66BA2A882","98724ecc-3bfb-42e7-8583-88d707385871","bea99957-1862-4ad8-9558-57b91e42ce64","{""participantId"":""475B4B2C0E2B44BC8108A5A66BA2A882"",""assignmentId"":""98724ecc-3bfb-42e7-8583-88d707385871"",""projectId"":""bea99957-1862-4ad8-9558-57b91e42ce64""}","https://test12345.live/?participantId=475B4B2C0E2B44BC8108A5A66BA2A882&assignmentId=98724ecc-3bfb-42e7-8583-88d707385871&projectId=bea99957-1862-4ad8-9558-57b91e42ce64","","1869","Was there a person in the picture?","1","",""
"","","","","","survey-likert","95","254847","0.0-69.0","475B4B2C0E2B44BC8108A5A66BA2A882","475B4B2C0E2B44BC8108A5A66BA2A882","98724ecc-3bfb-42e7-8583-88d707385871","bea99957-1862-4ad8-9558-57b91e42ce64","{""participantId"":""475B4B2C0E2B44BC8108A5A66BA2A882"",""assignmentId"":""98724ecc-3bfb-42e7-8583-88d707385871"",""projectId"":""bea99957-1862-4ad8-9558-57b91e42ce64""}","https://test12345.live/?participantId=475B4B2C0E2B44BC8108A5A66BA2A882&assignmentId=98724ecc-3bfb-42e7-8583-88d707385871&projectId=bea99957-1862-4ad8-9558-57b91e42ce64","","1924","","{""Q0"":3}","","[0]"
"","","","","","html-button-response","96","256253","0.0-70.0","475B4B2C0E2B44BC8108A5A66BA2A882","475B4B2C0E2B44BC8108A5A66BA2A882","98724ecc-3bfb-42e7-8583-88d707385871","bea99957-1862-4ad8-9558-57b91e42ce64","{""participantId"":""475B4B2C0E2B44BC8108A5A66BA2A882"",""assignmentId"":""98724ecc-3bfb-42e7-8583-88d707385871"",""projectId"":""bea99957-1862-4ad8-9558-57b91e42ce64""}","https://test12345.live/?participantId=475B4B2C0E2B44BC8108A5A66BA2A882&assignmentId=98724ecc-3bfb-42e7-8583-88d707385871&projectId=bea99957-1862-4ad8-9558-57b91e42ce64","","1401","
    <div style=""display: flex; justify-content: center; align-items: center;"">
      <img src=""images/red_deck_2.png"" style=""width: 300px; height: 300px; margin-right: 10px;"" />
      <img src=""images/blue_deck_1.png"" style=""width: 300px; height: 300px;"" />
    </div>","1","1",""
"","","","","","html-keyboard-response","97","259272","0.0-71.0-0.0","475B4B2C0E2B44BC8108A5A66BA2A882","475B4B2C0E2B44BC8108A5A66BA2A882","98724ecc-3bfb-42e7-8583-88d707385871","bea99957-1862-4ad8-9558-57b91e42ce64","{""participantId"":""475B4B2C0E2B44BC8108A5A66BA2A882"",""assignmentId"":""98724ecc-3bfb-42e7-8583-88d707385871"",""projectId"":""bea99957-1862-4ad8-9558-57b91e42ce64""}","https://test12345.live/?participantId=475B4B2C0E2B44BC8108A5A66BA2A882&assignmentId=98724ecc-3bfb-42e7-8583-88d707385871&projectId=bea99957-1862-4ad8-9558-57b91e42ce64","","null","<div style=""display: flex; justify-content: center; align-items: center;"">
                    <img src=""images/causal/causal_series_11/causal_series_11_a.jpg"" style=""width: 300px; height: 300px;"" />
                  </div>","null","",""
"","","","","","html-keyboard-response","98","262278","0.0-71.0-1.0","475B4B2C0E2B44BC8108A5A66BA2A882","475B4B2C0E2B44BC8108A5A66BA2A882","98724ecc-3bfb-42e7-8583-88d707385871","bea99957-1862-4ad8-9558-57b91e42ce64","{""participantId"":""475B4B2C0E2B44BC8108A5A66BA2A882"",""assignmentId"":""98724ecc-3bfb-42e7-8583-88d707385871"",""projectId"":""bea99957-1862-4ad8-9558-57b91e42ce64""}","https://test12345.live/?participantId=475B4B2C0E2B44BC8108A5A66BA2A882&assignmentId=98724ecc-3bfb-42e7-8583-88d707385871&projectId=bea99957-1862-4ad8-9558-57b91e42ce64","","null","<div style=""display: flex; justify-content: center; align-items: center;"">
                    <img src=""images/causal/causal_series_11/causal_series_11_b.jpg"" style=""width: 300px; height: 300px;"" />
                  </div>","null","",""
"","","","","","html-keyboard-response","99","265296","0.0-71.0-2.0","475B4B2C0E2B44BC8108A5A66BA2A882","475B4B2C0E2B44BC8108A5A66BA2A882","98724ecc-3bfb-42e7-8583-88d707385871","bea99957-1862-4ad8-9558-57b91e42ce64","{""participantId"":""475B4B2C0E2B44BC8108A5A66BA2A882"",""assignmentId"":""98724ecc-3bfb-42e7-8583-88d707385871"",""projectId"":""bea99957-1862-4ad8-9558-57b91e42ce64""}","https://test12345.live/?participantId=475B4B2C0E2B44BC8108A5A66BA2A882&assignmentId=98724ecc-3bfb-42e7-8583-88d707385871&projectId=bea99957-1862-4ad8-9558-57b91e42ce64","","null","<div style=""display: flex; justify-content: center; align-items: center;"">
                    <img src=""images/causal/causal_series_11/causal_series_11_c.jpg"" style=""width: 300px; height: 300px;"" />
                  </div>","null","",""
"","","","","","html-keyboard-response","100","268316","0.0-71.0-3.0","475B4B2C0E2B44BC8108A5A66BA2A882","475B4B2C0E2B44BC8108A5A66BA2A882","98724ecc-3bfb-42e7-8583-88d707385871","bea99957-1862-4ad8-9558-57b91e42ce64","{""participantId"":""475B4B2C0E2B44BC8108A5A66BA2A882"",""assignmentId"":""98724ecc-3bfb-42e7-8583-88d707385871"",""projectId"":""bea99957-1862-4ad8-9558-57b91e42ce64""}","https://test12345.live/?participantId=475B4B2C0E2B44BC8108A5A66BA2A882&assignmentId=98724ecc-3bfb-42e7-8583-88d707385871&projectId=bea99957-1862-4ad8-9558-57b91e42ce64","","null","<div style=""display: flex; justify-content: center; align-items: center;"">
                    <img src=""images/causal/causal_series_11/causal_series_11_d.jpg"" style=""width: 300px; height: 300px;"" />
                  </div>","null","",""
"","","","","","html-button-response","101","269689","0.0-73.0","475B4B2C0E2B44BC8108A5A66BA2A882","475B4B2C0E2B44BC8108A5A66BA2A882","98724ecc-3bfb-42e7-8583-88d707385871","bea99957-1862-4ad8-9558-57b91e42ce64","{""participantId"":""475B4B2C0E2B44BC8108A5A66BA2A882"",""assignmentId"":""98724ecc-3bfb-42e7-8583-88d707385871"",""projectId"":""bea99957-1862-4ad8-9558-57b91e42ce64""}","https://test12345.live/?participantId=475B4B2C0E2B44BC8108A5A66BA2A882&assignmentId=98724ecc-3bfb-42e7-8583-88d707385871&projectId=bea99957-1862-4ad8-9558-57b91e42ce64","","1371","Was there a person in the picture?","0","",""
"","","","","","survey-likert","102","271941","0.0-74.0","475B4B2C0E2B44BC8108A5A66BA2A882","475B4B2C0E2B44BC8108A5A66BA2A882","98724ecc-3bfb-42e7-8583-88d707385871","bea99957-1862-4ad8-9558-57b91e42ce64","{""participantId"":""475B4B2C0E2B44BC8108A5A66BA2A882"",""assignmentId"":""98724ecc-3bfb-42e7-8583-88d707385871"",""projectId"":""bea99957-1862-4ad8-9558-57b91e42ce64""}","https://test12345.live/?participantId=475B4B2C0E2B44BC8108A5A66BA2A882&assignmentId=98724ecc-3bfb-42e7-8583-88d707385871&projectId=bea99957-1862-4ad8-9558-57b91e42ce64","","2250","","{""Q0"":0}","","[0]"
"","","","","","html-button-response","103","273151","0.0-75.0","475B4B2C0E2B44BC8108A5A66BA2A882","475B4B2C0E2B44BC8108A5A66BA2A882","98724ecc-3bfb-42e7-8583-88d707385871","bea99957-1862-4ad8-9558-57b91e42ce64","{""participantId"":""475B4B2C0E2B44BC8108A5A66BA2A882"",""assignmentId"":""98724ecc-3bfb-42e7-8583-88d707385871"",""projectId"":""bea99957-1862-4ad8-9558-57b91e42ce64""}","https://test12345.live/?participantId=475B4B2C0E2B44BC8108A5A66BA2A882&assignmentId=98724ecc-3bfb-42e7-8583-88d707385871&projectId=bea99957-1862-4ad8-9558-57b91e42ce64","","1207","
    <div style=""display: flex; justify-content: center; align-items: center;"">
      <img src=""images/red_deck_2.png"" style=""width: 300px; height: 300px; margin-right: 10px;"" />
      <img src=""images/blue_deck_1.png"" style=""width: 300px; height: 300px;"" />
    </div>","1","1",""
"","","","","","html-keyboard-response","104","276167","0.0-76.0-0.0","475B4B2C0E2B44BC8108A5A66BA2A882","475B4B2C0E2B44BC8108A5A66BA2A882","98724ecc-3bfb-42e7-8583-88d707385871","bea99957-1862-4ad8-9558-57b91e42ce64","{""participantId"":""475B4B2C0E2B44BC8108A5A66BA2A882"",""assignmentId"":""98724ecc-3bfb-42e7-8583-88d707385871"",""projectId"":""bea99957-1862-4ad8-9558-57b91e42ce64""}","https://test12345.live/?participantId=475B4B2C0E2B44BC8108A5A66BA2A882&assignmentId=98724ecc-3bfb-42e7-8583-88d707385871&projectId=bea99957-1862-4ad8-9558-57b91e42ce64","","null","<div style=""display: flex; justify-content: center; align-items: center;"">
                    <img src=""images/causal/causal_series_16/causal_series_16_a.jpg"" style=""width: 300px; height: 300px;"" />
                  </div>","null","",""
"","","","","","html-keyboard-response","105","279187","0.0-76.0-1.0","475B4B2C0E2B44BC8108A5A66BA2A882","475B4B2C0E2B44BC8108A5A66BA2A882","98724ecc-3bfb-42e7-8583-88d707385871","bea99957-1862-4ad8-9558-57b91e42ce64","{""participantId"":""475B4B2C0E2B44BC8108A5A66BA2A882"",""assignmentId"":""98724ecc-3bfb-42e7-8583-88d707385871"",""projectId"":""bea99957-1862-4ad8-9558-57b91e42ce64""}","https://test12345.live/?participantId=475B4B2C0E2B44BC8108A5A66BA2A882&assignmentId=98724ecc-3bfb-42e7-8583-88d707385871&projectId=bea99957-1862-4ad8-9558-57b91e42ce64","","null","<div style=""display: flex; justify-content: center; align-items: center;"">
                    <img src=""images/causal/causal_series_16/causal_series_16_b.jpg"" style=""width: 300px; height: 300px;"" />
                  </div>","null","",""
"","","","","","html-keyboard-response","106","282198","0.0-76.0-2.0","475B4B2C0E2B44BC8108A5A66BA2A882","475B4B2C0E2B44BC8108A5A66BA2A882","98724ecc-3bfb-42e7-8583-88d707385871","bea99957-1862-4ad8-9558-57b91e42ce64","{""participantId"":""475B4B2C0E2B44BC8108A5A66BA2A882"",""assignmentId"":""98724ecc-3bfb-42e7-8583-88d707385871"",""projectId"":""bea99957-1862-4ad8-9558-57b91e42ce64""}","https://test12345.live/?participantId=475B4B2C0E2B44BC8108A5A66BA2A882&assignmentId=98724ecc-3bfb-42e7-8583-88d707385871&projectId=bea99957-1862-4ad8-9558-57b91e42ce64","","null","<div style=""display: flex; justify-content: center; align-items: center;"">
                    <img src=""images/causal/causal_series_16/causal_series_16_c.jpg"" style=""width: 300px; height: 300px;"" />
                  </div>","null","",""
"","","","","","html-keyboard-response","107","285203","0.0-76.0-3.0","475B4B2C0E2B44BC8108A5A66BA2A882","475B4B2C0E2B44BC8108A5A66BA2A882","98724ecc-3bfb-42e7-8583-88d707385871","bea99957-1862-4ad8-9558-57b91e42ce64","{""participantId"":""475B4B2C0E2B44BC8108A5A66BA2A882"",""assignmentId"":""98724ecc-3bfb-42e7-8583-88d707385871"",""projectId"":""bea99957-1862-4ad8-9558-57b91e42ce64""}","https://test12345.live/?participantId=475B4B2C0E2B44BC8108A5A66BA2A882&assignmentId=98724ecc-3bfb-42e7-8583-88d707385871&projectId=bea99957-1862-4ad8-9558-57b91e42ce64","","null","<div style=""display: flex; justify-content: center; align-items: center;"">
                    <img src=""images/causal/causal_series_16/causal_series_16_d.jpg"" style=""width: 300px; height: 300px;"" />
                  </div>","null","",""
"","","","","","html-button-response","108","286495","0.0-78.0","475B4B2C0E2B44BC8108A5A66BA2A882","475B4B2C0E2B44BC8108A5A66BA2A882","98724ecc-3bfb-42e7-8583-88d707385871","bea99957-1862-4ad8-9558-57b91e42ce64","{""participantId"":""475B4B2C0E2B44BC8108A5A66BA2A882"",""assignmentId"":""98724ecc-3bfb-42e7-8583-88d707385871"",""projectId"":""bea99957-1862-4ad8-9558-57b91e42ce64""}","https://test12345.live/?participantId=475B4B2C0E2B44BC8108A5A66BA2A882&assignmentId=98724ecc-3bfb-42e7-8583-88d707385871&projectId=bea99957-1862-4ad8-9558-57b91e42ce64","","1290","Was there a person in the picture?","0","",""
"","","","","","survey-likert","109","289825","0.0-79.0","475B4B2C0E2B44BC8108A5A66BA2A882","475B4B2C0E2B44BC8108A5A66BA2A882","98724ecc-3bfb-42e7-8583-88d707385871","bea99957-1862-4ad8-9558-57b91e42ce64","{""participantId"":""475B4B2C0E2B44BC8108A5A66BA2A882"",""assignmentId"":""98724ecc-3bfb-42e7-8583-88d707385871"",""projectId"":""bea99957-1862-4ad8-9558-57b91e42ce64""}","https://test12345.live/?participantId=475B4B2C0E2B44BC8108A5A66BA2A882&assignmentId=98724ecc-3bfb-42e7-8583-88d707385871&projectId=bea99957-1862-4ad8-9558-57b91e42ce64","","3329","","{""Q0"":1}","","[0]"
"","","","","","html-button-response","110","293344","0.0-80.0","475B4B2C0E2B44BC8108A5A66BA2A882","475B4B2C0E2B44BC8108A5A66BA2A882","98724ecc-3bfb-42e7-8583-88d707385871","bea99957-1862-4ad8-9558-57b91e42ce64","{""participantId"":""475B4B2C0E2B44BC8108A5A66BA2A882"",""assignmentId"":""98724ecc-3bfb-42e7-8583-88d707385871"",""projectId"":""bea99957-1862-4ad8-9558-57b91e42ce64""}","https://test12345.live/?participantId=475B4B2C0E2B44BC8108A5A66BA2A882&assignmentId=98724ecc-3bfb-42e7-8583-88d707385871&projectId=bea99957-1862-4ad8-9558-57b91e42ce64","","3515","
    <div style=""display: flex; justify-content: center; align-items: center;"">
      <img src=""images/red_deck_2.png"" style=""width: 300px; height: 300px; margin-right: 10px;"" />
      <img src=""images/blue_deck_1.png"" style=""width: 300px; height: 300px;"" />
    </div>","0","0",""
"","","","","","html-keyboard-response","111","296358","0.0-82.0-0.0","475B4B2C0E2B44BC8108A5A66BA2A882","475B4B2C0E2B44BC8108A5A66BA2A882","98724ecc-3bfb-42e7-8583-88d707385871","bea99957-1862-4ad8-9558-57b91e42ce64","{""participantId"":""475B4B2C0E2B44BC8108A5A66BA2A882"",""assignmentId"":""98724ecc-3bfb-42e7-8583-88d707385871"",""projectId"":""bea99957-1862-4ad8-9558-57b91e42ce64""}","https://test12345.live/?participantId=475B4B2C0E2B44BC8108A5A66BA2A882&assignmentId=98724ecc-3bfb-42e7-8583-88d707385871&projectId=bea99957-1862-4ad8-9558-57b91e42ce64","","null","<div style=""display: flex; justify-content: center; align-items: center;"">
                    <img src=""images/semantic/semantic_series_5/semantic_series_5_a.jpg"" style=""width: 300px; height: 300px;"" />
                  </div>","null","",""
"","","","","","html-keyboard-response","112","299370","0.0-82.0-1.0","475B4B2C0E2B44BC8108A5A66BA2A882","475B4B2C0E2B44BC8108A5A66BA2A882","98724ecc-3bfb-42e7-8583-88d707385871","bea99957-1862-4ad8-9558-57b91e42ce64","{""participantId"":""475B4B2C0E2B44BC8108A5A66BA2A882"",""assignmentId"":""98724ecc-3bfb-42e7-8583-88d707385871"",""projectId"":""bea99957-1862-4ad8-9558-57b91e42ce64""}","https://test12345.live/?participantId=475B4B2C0E2B44BC8108A5A66BA2A882&assignmentId=98724ecc-3bfb-42e7-8583-88d707385871&projectId=bea99957-1862-4ad8-9558-57b91e42ce64","","null","<div style=""display: flex; justify-content: center; align-items: center;"">
                    <img src=""images/semantic/semantic_series_5/semantic_series_5_b.jpg"" style=""width: 300px; height: 300px;"" />
                  </div>","null","",""
"","","","","","html-keyboard-response","113","302375","0.0-82.0-2.0","475B4B2C0E2B44BC8108A5A66BA2A882","475B4B2C0E2B44BC8108A5A66BA2A882","98724ecc-3bfb-42e7-8583-88d707385871","bea99957-1862-4ad8-9558-57b91e42ce64","{""participantId"":""475B4B2C0E2B44BC8108A5A66BA2A882"",""assignmentId"":""98724ecc-3bfb-42e7-8583-88d707385871"",""projectId"":""bea99957-1862-4ad8-9558-57b91e42ce64""}","https://test12345.live/?participantId=475B4B2C0E2B44BC8108A5A66BA2A882&assignmentId=98724ecc-3bfb-42e7-8583-88d707385871&projectId=bea99957-1862-4ad8-9558-57b91e42ce64","","null","<div style=""display: flex; justify-content: center; align-items: center;"">
                    <img src=""images/semantic/semantic_series_5/semantic_series_5_c.jpg"" style=""width: 300px; height: 300px;"" />
                  </div>","null","",""
"","","","","","html-keyboard-response","114","305384","0.0-82.0-3.0","475B4B2C0E2B44BC8108A5A66BA2A882","475B4B2C0E2B44BC8108A5A66BA2A882","98724ecc-3bfb-42e7-8583-88d707385871","bea99957-1862-4ad8-9558-57b91e42ce64","{""participantId"":""475B4B2C0E2B44BC8108A5A66BA2A882"",""assignmentId"":""98724ecc-3bfb-42e7-8583-88d707385871"",""projectId"":""bea99957-1862-4ad8-9558-57b91e42ce64""}","https://test12345.live/?participantId=475B4B2C0E2B44BC8108A5A66BA2A882&assignmentId=98724ecc-3bfb-42e7-8583-88d707385871&projectId=bea99957-1862-4ad8-9558-57b91e42ce64","","null","<div style=""display: flex; justify-content: center; align-items: center;"">
                    <img src=""images/semantic/semantic_series_5/semantic_series_5_d.jpg"" style=""width: 300px; height: 300px;"" />
                  </div>","null","",""
"","","","","","html-button-response","115","309151","0.0-83.0","475B4B2C0E2B44BC8108A5A66BA2A882","475B4B2C0E2B44BC8108A5A66BA2A882","98724ecc-3bfb-42e7-8583-88d707385871","bea99957-1862-4ad8-9558-57b91e42ce64","{""participantId"":""475B4B2C0E2B44BC8108A5A66BA2A882"",""assignmentId"":""98724ecc-3bfb-42e7-8583-88d707385871"",""projectId"":""bea99957-1862-4ad8-9558-57b91e42ce64""}","https://test12345.live/?participantId=475B4B2C0E2B44BC8108A5A66BA2A882&assignmentId=98724ecc-3bfb-42e7-8583-88d707385871&projectId=bea99957-1862-4ad8-9558-57b91e42ce64","","3765","Was there a person in the picture?","0","",""
"","","","","","survey-likert","116","311019","0.0-84.0","475B4B2C0E2B44BC8108A5A66BA2A882","475B4B2C0E2B44BC8108A5A66BA2A882","98724ecc-3bfb-42e7-8583-88d707385871","bea99957-1862-4ad8-9558-57b91e42ce64","{""participantId"":""475B4B2C0E2B44BC8108A5A66BA2A882"",""assignmentId"":""98724ecc-3bfb-42e7-8583-88d707385871"",""projectId"":""bea99957-1862-4ad8-9558-57b91e42ce64""}","https://test12345.live/?participantId=475B4B2C0E2B44BC8108A5A66BA2A882&assignmentId=98724ecc-3bfb-42e7-8583-88d707385871&projectId=bea99957-1862-4ad8-9558-57b91e42ce64","","1867","","{""Q0"":1}","","[0]"
"","","","","","html-button-response","117","312510","0.0-85.0","475B4B2C0E2B44BC8108A5A66BA2A882","475B4B2C0E2B44BC8108A5A66BA2A882","98724ecc-3bfb-42e7-8583-88d707385871","bea99957-1862-4ad8-9558-57b91e42ce64","{""participantId"":""475B4B2C0E2B44BC8108A5A66BA2A882"",""assignmentId"":""98724ecc-3bfb-42e7-8583-88d707385871"",""projectId"":""bea99957-1862-4ad8-9558-57b91e42ce64""}","https://test12345.live/?participantId=475B4B2C0E2B44BC8108A5A66BA2A882&assignmentId=98724ecc-3bfb-42e7-8583-88d707385871&projectId=bea99957-1862-4ad8-9558-57b91e42ce64","","1487","
    <div style=""display: flex; justify-content: center; align-items: center;"">
      <img src=""images/red_deck_2.png"" style=""width: 300px; height: 300px; margin-right: 10px;"" />
      <img src=""images/blue_deck_1.png"" style=""width: 300px; height: 300px;"" />
    </div>","1","1",""
"","","","","","html-keyboard-response","118","315517","0.0-86.0-0.0","475B4B2C0E2B44BC8108A5A66BA2A882","475B4B2C0E2B44BC8108A5A66BA2A882","98724ecc-3bfb-42e7-8583-88d707385871","bea99957-1862-4ad8-9558-57b91e42ce64","{""participantId"":""475B4B2C0E2B44BC8108A5A66BA2A882"",""assignmentId"":""98724ecc-3bfb-42e7-8583-88d707385871"",""projectId"":""bea99957-1862-4ad8-9558-57b91e42ce64""}","https://test12345.live/?participantId=475B4B2C0E2B44BC8108A5A66BA2A882&assignmentId=98724ecc-3bfb-42e7-8583-88d707385871&projectId=bea99957-1862-4ad8-9558-57b91e42ce64","","null","<div style=""display: flex; justify-content: center; align-items: center;"">
                    <img src=""images/causal/causal_series_18/causal_series_18_a.jpg"" style=""width: 300px; height: 300px;"" />
                  </div>","null","",""
"","","","","","html-keyboard-response","119","318523","0.0-86.0-1.0","475B4B2C0E2B44BC8108A5A66BA2A882","475B4B2C0E2B44BC8108A5A66BA2A882","98724ecc-3bfb-42e7-8583-88d707385871","bea99957-1862-4ad8-9558-57b91e42ce64","{""participantId"":""475B4B2C0E2B44BC8108A5A66BA2A882"",""assignmentId"":""98724ecc-3bfb-42e7-8583-88d707385871"",""projectId"":""bea99957-1862-4ad8-9558-57b91e42ce64""}","https://test12345.live/?participantId=475B4B2C0E2B44BC8108A5A66BA2A882&assignmentId=98724ecc-3bfb-42e7-8583-88d707385871&projectId=bea99957-1862-4ad8-9558-57b91e42ce64","","null","<div style=""display: flex; justify-content: center; align-items: center;"">
                    <img src=""images/causal/causal_series_18/causal_series_18_b.jpg"" style=""width: 300px; height: 300px;"" />
                  </div>","null","",""
"","","","","","html-keyboard-response","120","321534","0.0-86.0-2.0","475B4B2C0E2B44BC8108A5A66BA2A882","475B4B2C0E2B44BC8108A5A66BA2A882","98724ecc-3bfb-42e7-8583-88d707385871","bea99957-1862-4ad8-9558-57b91e42ce64","{""participantId"":""475B4B2C0E2B44BC8108A5A66BA2A882"",""assignmentId"":""98724ecc-3bfb-42e7-8583-88d707385871"",""projectId"":""bea99957-1862-4ad8-9558-57b91e42ce64""}","https://test12345.live/?participantId=475B4B2C0E2B44BC8108A5A66BA2A882&assignmentId=98724ecc-3bfb-42e7-8583-88d707385871&projectId=bea99957-1862-4ad8-9558-57b91e42ce64","","null","<div style=""display: flex; justify-content: center; align-items: center;"">
                    <img src=""images/causal/causal_series_18/causal_series_18_c.jpg"" style=""width: 300px; height: 300px;"" />
                  </div>","null","",""
"","","","","","html-keyboard-response","121","324536","0.0-86.0-3.0","475B4B2C0E2B44BC8108A5A66BA2A882","475B4B2C0E2B44BC8108A5A66BA2A882","98724ecc-3bfb-42e7-8583-88d707385871","bea99957-1862-4ad8-9558-57b91e42ce64","{""participantId"":""475B4B2C0E2B44BC8108A5A66BA2A882"",""assignmentId"":""98724ecc-3bfb-42e7-8583-88d707385871"",""projectId"":""bea99957-1862-4ad8-9558-57b91e42ce64""}","https://test12345.live/?participantId=475B4B2C0E2B44BC8108A5A66BA2A882&assignmentId=98724ecc-3bfb-42e7-8583-88d707385871&projectId=bea99957-1862-4ad8-9558-57b91e42ce64","","null","<div style=""display: flex; justify-content: center; align-items: center;"">
                    <img src=""images/causal/causal_series_18/causal_series_18_d.jpg"" style=""width: 300px; height: 300px;"" />
                  </div>","null","",""
"","","","","","html-button-response","122","325499","0.0-88.0","475B4B2C0E2B44BC8108A5A66BA2A882","475B4B2C0E2B44BC8108A5A66BA2A882","98724ecc-3bfb-42e7-8583-88d707385871","bea99957-1862-4ad8-9558-57b91e42ce64","{""participantId"":""475B4B2C0E2B44BC8108A5A66BA2A882"",""assignmentId"":""98724ecc-3bfb-42e7-8583-88d707385871"",""projectId"":""bea99957-1862-4ad8-9558-57b91e42ce64""}","https://test12345.live/?participantId=475B4B2C0E2B44BC8108A5A66BA2A882&assignmentId=98724ecc-3bfb-42e7-8583-88d707385871&projectId=bea99957-1862-4ad8-9558-57b91e42ce64","","962","Was there a person in the picture?","1","",""
"","","","","","survey-likert","123","327144","0.0-89.0","475B4B2C0E2B44BC8108A5A66BA2A882","475B4B2C0E2B44BC8108A5A66BA2A882","98724ecc-3bfb-42e7-8583-88d707385871","bea99957-1862-4ad8-9558-57b91e42ce64","{""participantId"":""475B4B2C0E2B44BC8108A5A66BA2A882"",""assignmentId"":""98724ecc-3bfb-42e7-8583-88d707385871"",""projectId"":""bea99957-1862-4ad8-9558-57b91e42ce64""}","https://test12345.live/?participantId=475B4B2C0E2B44BC8108A5A66BA2A882&assignmentId=98724ecc-3bfb-42e7-8583-88d707385871&projectId=bea99957-1862-4ad8-9558-57b91e42ce64","","1642","","{""Q0"":3}","","[0]"
"","","","","","html-button-response","124","328112","0.0-90.0","475B4B2C0E2B44BC8108A5A66BA2A882","475B4B2C0E2B44BC8108A5A66BA2A882","98724ecc-3bfb-42e7-8583-88d707385871","bea99957-1862-4ad8-9558-57b91e42ce64","{""participantId"":""475B4B2C0E2B44BC8108A5A66BA2A882"",""assignmentId"":""98724ecc-3bfb-42e7-8583-88d707385871"",""projectId"":""bea99957-1862-4ad8-9558-57b91e42ce64""}","https://test12345.live/?participantId=475B4B2C0E2B44BC8108A5A66BA2A882&assignmentId=98724ecc-3bfb-42e7-8583-88d707385871&projectId=bea99957-1862-4ad8-9558-57b91e42ce64","","965","
    <div style=""display: flex; justify-content: center; align-items: center;"">
      <img src=""images/red_deck_2.png"" style=""width: 300px; height: 300px; margin-right: 10px;"" />
      <img src=""images/blue_deck_1.png"" style=""width: 300px; height: 300px;"" />
    </div>","1","1",""
"","","","","","html-keyboard-response","125","331121","0.0-91.0-0.0","475B4B2C0E2B44BC8108A5A66BA2A882","475B4B2C0E2B44BC8108A5A66BA2A882","98724ecc-3bfb-42e7-8583-88d707385871","bea99957-1862-4ad8-9558-57b91e42ce64","{""participantId"":""475B4B2C0E2B44BC8108A5A66BA2A882"",""assignmentId"":""98724ecc-3bfb-42e7-8583-88d707385871"",""projectId"":""bea99957-1862-4ad8-9558-57b91e42ce64""}","https://test12345.live/?participantId=475B4B2C0E2B44BC8108A5A66BA2A882&assignmentId=98724ecc-3bfb-42e7-8583-88d707385871&projectId=bea99957-1862-4ad8-9558-57b91e42ce64","","null","<div style=""display: flex; justify-content: center; align-items: center;"">
                    <img src=""images/causal/causal_series_12/causal_series_12_a.jpg"" style=""width: 300px; height: 300px;"" />
                  </div>","null","",""
"","","","","","html-keyboard-response","126","334127","0.0-91.0-1.0","475B4B2C0E2B44BC8108A5A66BA2A882","475B4B2C0E2B44BC8108A5A66BA2A882","98724ecc-3bfb-42e7-8583-88d707385871","bea99957-1862-4ad8-9558-57b91e42ce64","{""participantId"":""475B4B2C0E2B44BC8108A5A66BA2A882"",""assignmentId"":""98724ecc-3bfb-42e7-8583-88d707385871"",""projectId"":""bea99957-1862-4ad8-9558-57b91e42ce64""}","https://test12345.live/?participantId=475B4B2C0E2B44BC8108A5A66BA2A882&assignmentId=98724ecc-3bfb-42e7-8583-88d707385871&projectId=bea99957-1862-4ad8-9558-57b91e42ce64","","null","<div style=""display: flex; justify-content: center; align-items: center;"">
                    <img src=""images/causal/causal_series_12/causal_series_12_b.jpg"" style=""width: 300px; height: 300px;"" />
                  </div>","null","",""
"","","","","","html-keyboard-response","127","337130","0.0-91.0-2.0","475B4B2C0E2B44BC8108A5A66BA2A882","475B4B2C0E2B44BC8108A5A66BA2A882","98724ecc-3bfb-42e7-8583-88d707385871","bea99957-1862-4ad8-9558-57b91e42ce64","{""participantId"":""475B4B2C0E2B44BC8108A5A66BA2A882"",""assignmentId"":""98724ecc-3bfb-42e7-8583-88d707385871"",""projectId"":""bea99957-1862-4ad8-9558-57b91e42ce64""}","https://test12345.live/?participantId=475B4B2C0E2B44BC8108A5A66BA2A882&assignmentId=98724ecc-3bfb-42e7-8583-88d707385871&projectId=bea99957-1862-4ad8-9558-57b91e42ce64","","null","<div style=""display: flex; justify-content: center; align-items: center;"">
                    <img src=""images/causal/causal_series_12/causal_series_12_c.jpg"" style=""width: 300px; height: 300px;"" />
                  </div>","null","",""
"","","","","","html-keyboard-response","128","340143","0.0-91.0-3.0","475B4B2C0E2B44BC8108A5A66BA2A882","475B4B2C0E2B44BC8108A5A66BA2A882","98724ecc-3bfb-42e7-8583-88d707385871","bea99957-1862-4ad8-9558-57b91e42ce64","{""participantId"":""475B4B2C0E2B44BC8108A5A66BA2A882"",""assignmentId"":""98724ecc-3bfb-42e7-8583-88d707385871"",""projectId"":""bea99957-1862-4ad8-9558-57b91e42ce64""}","https://test12345.live/?participantId=475B4B2C0E2B44BC8108A5A66BA2A882&assignmentId=98724ecc-3bfb-42e7-8583-88d707385871&projectId=bea99957-1862-4ad8-9558-57b91e42ce64","","null","<div style=""display: flex; justify-content: center; align-items: center;"">
                    <img src=""images/causal/causal_series_12/causal_series_12_d.jpg"" style=""width: 300px; height: 300px;"" />
                  </div>","null","",""
"","","","","","html-button-response","129","341410","0.0-93.0","475B4B2C0E2B44BC8108A5A66BA2A882","475B4B2C0E2B44BC8108A5A66BA2A882","98724ecc-3bfb-42e7-8583-88d707385871","bea99957-1862-4ad8-9558-57b91e42ce64","{""participantId"":""475B4B2C0E2B44BC8108A5A66BA2A882"",""assignmentId"":""98724ecc-3bfb-42e7-8583-88d707385871"",""projectId"":""bea99957-1862-4ad8-9558-57b91e42ce64""}","https://test12345.live/?participantId=475B4B2C0E2B44BC8108A5A66BA2A882&assignmentId=98724ecc-3bfb-42e7-8583-88d707385871&projectId=bea99957-1862-4ad8-9558-57b91e42ce64","","1266","Was there a person in the picture?","1","",""
"","","","","","survey-likert","130","343995","0.0-94.0","475B4B2C0E2B44BC8108A5A66BA2A882","475B4B2C0E2B44BC8108A5A66BA2A882","98724ecc-3bfb-42e7-8583-88d707385871","bea99957-1862-4ad8-9558-57b91e42ce64","{""participantId"":""475B4B2C0E2B44BC8108A5A66BA2A882"",""assignmentId"":""98724ecc-3bfb-42e7-8583-88d707385871"",""projectId"":""bea99957-1862-4ad8-9558-57b91e42ce64""}","https://test12345.live/?participantId=475B4B2C0E2B44BC8108A5A66BA2A882&assignmentId=98724ecc-3bfb-42e7-8583-88d707385871&projectId=bea99957-1862-4ad8-9558-57b91e42ce64","","2583","","{""Q0"":3}","","[0]"
"","","","","","survey-text","131","352784","0.0-95.0","475B4B2C0E2B44BC8108A5A66BA2A882","475B4B2C0E2B44BC8108A5A66BA2A882","98724ecc-3bfb-42e7-8583-88d707385871","bea99957-1862-4ad8-9558-57b91e42ce64","{""participantId"":""475B4B2C0E2B44BC8108A5A66BA2A882"",""assignmentId"":""98724ecc-3bfb-42e7-8583-88d707385871"",""projectId"":""bea99957-1862-4ad8-9558-57b91e42ce64""}","https://test12345.live/?participantId=475B4B2C0E2B44BC8108A5A66BA2A882&assignmentId=98724ecc-3bfb-42e7-8583-88d707385871&projectId=bea99957-1862-4ad8-9558-57b91e42ce64","","8780","","{""Q0"":""One deck is red and the other is blue""}","",""
