"success","timeout","failed_images","failed_audio","failed_video","trial_type","trial_index","time_elapsed","internal_node_id","subject_id","study_id","session_id","view_history","rt","stimulus","response","choice"
"true","false","[]","[]","[]","preload","0","3386","0.0-0.0","BD6FD73B110D40F1ABAE6637FB70522B","562d1c78-9a4d-409f-af32-f710762fe9fd","60874837-17fe-43d8-ba5e-75a805c652dd","","","","",""
"","","","","","instructions","1","9385","0.0-1.0","BD6FD73B110D40F1ABAE6637FB70522B","562d1c78-9a4d-409f-af32-f710762fe9fd","60874837-17fe-43d8-ba5e-75a805c652dd","[{""page_index"":0,""viewing_time"":5999}]","5999","","",""
"","","","","","instructions","2","15089","0.0-2.0","BD6FD73B110D40F1ABAE6637FB70522B","562d1c78-9a4d-409f-af32-f710762fe9fd","60874837-17fe-43d8-ba5e-75a805c652dd","[{""page_index"":0,""viewing_time"":5704}]","5704","","",""
"true","","","","","fullscreen","3","18336","0.0-3.0","BD6FD73B110D40F1ABAE6637FB70522B","562d1c78-9a4d-409f-af32-f710762fe9fd","60874837-17fe-43d8-ba5e-75a805c652dd","","2235","","",""
"","","","","","instructions","4","33792","0.0-4.0","BD6FD73B110D40F1ABAE6637FB70522B","562d1c78-9a4d-409f-af32-f710762fe9fd","60874837-17fe-43d8-ba5e-75a805c652dd","[{""page_index"":0,""viewing_time"":15456}]","15456","","",""
"","","","","","html-keyboard-response","5","36805","0.0-5.0","BD6FD73B110D40F1ABAE6637FB70522B","562d1c78-9a4d-409f-af32-f710762fe9fd","60874837-17fe-43d8-ba5e-75a805c652dd","","null","<div style=""display: flex; justify-content: center; align-items: center;"">
                <img src=""images/causal/causal_series_6/causal_series_6_a.jpg"" style=""width: 300px; height: 300px;"" />
              </div>","null",""
"","","","","","html-keyboard-response","6","39809","0.0-6.0","BD6FD73B110D40F1ABAE6637FB70522B","562d1c78-9a4d-409f-af32-f710762fe9fd","60874837-17fe-43d8-ba5e-75a805c652dd","","null","<div style=""display: flex; justify-content: center; align-items: center;"">
                <img src=""images/causal/causal_series_6/causal_series_6_b.jpg"" style=""width: 300px; height: 300px;"" />
              </div>","null",""
"","","","","","html-keyboard-response","7","42815","0.0-7.0","BD6FD73B110D40F1ABAE6637FB70522B","562d1c78-9a4d-409f-af32-f710762fe9fd","60874837-17fe-43d8-ba5e-75a805c652dd","","null","<div style=""display: flex; justify-content: center; align-items: center;"">
                <img src=""images/causal/causal_series_6/causal_series_6_c.jpg"" style=""width: 300px; height: 300px;"" />
              </div>","null",""
"","","","","","html-button-response","8","44936","0.0-8.0","BD6FD73B110D40F1ABAE6637FB70522B","562d1c78-9a4d-409f-af32-f710762fe9fd","60874837-17fe-43d8-ba5e-75a805c652dd","","2119","
    <div style=""display: flex; justify-content: center; align-items: center;"">
      <img src=""images/red_deck_2.png"" style=""width: 300px; height: 300px; margin-right: 10px;"" />
      <img src=""images/blue_deck_1.png"" style=""width: 300px; height: 300px;"" />
    </div>","0","0"
"","","","","","html-keyboard-response","9","47951","0.0-9.0-0.0-0.0","BD6FD73B110D40F1ABAE6637FB70522B","562d1c78-9a4d-409f-af32-f710762fe9fd","60874837-17fe-43d8-ba5e-75a805c652dd","","null","<div style=""display: flex; justify-content: center; align-items: center;"">
                <img src=""images/causal/causal_series_6/causal_series_6_d.jpg"" style=""width: 300px; height: 300px;"" />
              </div>","null",""
"","","","","","html-keyboard-response","10","50956","0.0-10.0","BD6FD73B110D40F1ABAE6637FB70522B","562d1c78-9a4d-409f-af32-f710762fe9fd","60874837-17fe-43d8-ba5e-75a805c652dd","","null","<div style=""display: flex; justify-content: center; align-items: center;"">
                <img src=""images/other/blank.jpg"" style=""width: 300px; height: 300px;"" />
              </div>","null",""
"","","","","","html-keyboard-response","11","53964","0.0-11.0","BD6FD73B110D40F1ABAE6637FB70522B","562d1c78-9a4d-409f-af32-f710762fe9fd","60874837-17fe-43d8-ba5e-75a805c652dd","","null","<div style=""display: flex; justify-content: center; align-items: center;"">
                <img src=""images/causal/causal_series_13/causal_series_13_a.jpg"" style=""width: 300px; height: 300px;"" />
              </div>","null",""
"","","","","","html-keyboard-response","12","56969","0.0-12.0","BD6FD73B110D40F1ABAE6637FB70522B","562d1c78-9a4d-409f-af32-f710762fe9fd","60874837-17fe-43d8-ba5e-75a805c652dd","","null","<div style=""display: flex; justify-content: center; align-items: center;"">
                <img src=""images/causal/causal_series_13/causal_series_13_b.jpg"" style=""width: 300px; height: 300px;"" />
              </div>","null",""
"","","","","","html-keyboard-response","13","59974","0.0-13.0","BD6FD73B110D40F1ABAE6637FB70522B","562d1c78-9a4d-409f-af32-f710762fe9fd","60874837-17fe-43d8-ba5e-75a805c652dd","","null","<div style=""display: flex; justify-content: center; align-items: center;"">
                <img src=""images/causal/causal_series_13/causal_series_13_c.jpg"" style=""width: 300px; height: 300px;"" />
              </div>","null",""
"","","","","","html-button-response","14","61200","0.0-14.0","BD6FD73B110D40F1ABAE6637FB70522B","562d1c78-9a4d-409f-af32-f710762fe9fd","60874837-17fe-43d8-ba5e-75a805c652dd","","1225","
    <div style=""display: flex; justify-content: center; align-items: center;"">
      <img src=""images/red_deck_2.png"" style=""width: 300px; height: 300px; margin-right: 10px;"" />
      <img src=""images/blue_deck_1.png"" style=""width: 300px; height: 300px;"" />
    </div>","1","1"
"","","","","","html-keyboard-response","15","64211","0.0-15.0-1.0-0.0","BD6FD73B110D40F1ABAE6637FB70522B","562d1c78-9a4d-409f-af32-f710762fe9fd","60874837-17fe-43d8-ba5e-75a805c652dd","","null","<div style=""display: flex; justify-content: center; align-items: center;"">
                <img src=""images/semantic/semantic_series_12/semantic_series_12_d.jpg"" style=""width: 300px; height: 300px;"" />
              </div>","null",""
"","","","","","html-keyboard-response","16","67219","0.0-16.0","BD6FD73B110D40F1ABAE6637FB70522B","562d1c78-9a4d-409f-af32-f710762fe9fd","60874837-17fe-43d8-ba5e-75a805c652dd","","null","<div style=""display: flex; justify-content: center; align-items: center;"">
                <img src=""images/other/blank.jpg"" style=""width: 300px; height: 300px;"" />
              </div>","null",""
"","","","","","html-keyboard-response","17","70226","0.0-17.0","BD6FD73B110D40F1ABAE6637FB70522B","562d1c78-9a4d-409f-af32-f710762fe9fd","60874837-17fe-43d8-ba5e-75a805c652dd","","null","<div style=""display: flex; justify-content: center; align-items: center;"">
                <img src=""images/causal/causal_series_18/causal_series_18_a.jpg"" style=""width: 300px; height: 300px;"" />
              </div>","null",""
"","","","","","html-keyboard-response","18","73232","0.0-18.0","BD6FD73B110D40F1ABAE6637FB70522B","562d1c78-9a4d-409f-af32-f710762fe9fd","60874837-17fe-43d8-ba5e-75a805c652dd","","null","<div style=""display: flex; justify-content: center; align-items: center;"">
                <img src=""images/causal/causal_series_18/causal_series_18_b.jpg"" style=""width: 300px; height: 300px;"" />
              </div>","null",""
"","","","","","html-keyboard-response","19","76239","0.0-19.0","BD6FD73B110D40F1ABAE6637FB70522B","562d1c78-9a4d-409f-af32-f710762fe9fd","60874837-17fe-43d8-ba5e-75a805c652dd","","null","<div style=""display: flex; justify-content: center; align-items: center;"">
                <img src=""images/causal/causal_series_18/causal_series_18_c.jpg"" style=""width: 300px; height: 300px;"" />
              </div>","null",""
"","","","","","html-button-response","20","78662","0.0-20.0","BD6FD73B110D40F1ABAE6637FB70522B","562d1c78-9a4d-409f-af32-f710762fe9fd","60874837-17fe-43d8-ba5e-75a805c652dd","","2423","
    <div style=""display: flex; justify-content: center; align-items: center;"">
      <img src=""images/red_deck_2.png"" style=""width: 300px; height: 300px; margin-right: 10px;"" />
      <img src=""images/blue_deck_1.png"" style=""width: 300px; height: 300px;"" />
    </div>","1","1"
"","","","","","html-keyboard-response","21","81676","0.0-21.0-1.0-0.0","BD6FD73B110D40F1ABAE6637FB70522B","562d1c78-9a4d-409f-af32-f710762fe9fd","60874837-17fe-43d8-ba5e-75a805c652dd","","null","<div style=""display: flex; justify-content: center; align-items: center;"">
                <img src=""images/semantic/semantic_series_17/semantic_series_17_d.jpg"" style=""width: 300px; height: 300px;"" />
              </div>","null",""
"","","","","","html-keyboard-response","22","84684","0.0-22.0","BD6FD73B110D40F1ABAE6637FB70522B","562d1c78-9a4d-409f-af32-f710762fe9fd","60874837-17fe-43d8-ba5e-75a805c652dd","","null","<div style=""display: flex; justify-content: center; align-items: center;"">
                <img src=""images/other/blank.jpg"" style=""width: 300px; height: 300px;"" />
              </div>","null",""
"","","","","","html-keyboard-response","23","87687","0.0-23.0","BD6FD73B110D40F1ABAE6637FB70522B","562d1c78-9a4d-409f-af32-f710762fe9fd","60874837-17fe-43d8-ba5e-75a805c652dd","","null","<div style=""display: flex; justify-content: center; align-items: center;"">
                <img src=""images/causal/causal_series_17/causal_series_17_a.jpg"" style=""width: 300px; height: 300px;"" />
              </div>","null",""
"","","","","","html-keyboard-response","24","90695","0.0-24.0","BD6FD73B110D40F1ABAE6637FB70522B","562d1c78-9a4d-409f-af32-f710762fe9fd","60874837-17fe-43d8-ba5e-75a805c652dd","","null","<div style=""display: flex; justify-content: center; align-items: center;"">
                <img src=""images/causal/causal_series_17/causal_series_17_b.jpg"" style=""width: 300px; height: 300px;"" />
              </div>","null",""
"","","","","","html-keyboard-response","25","93696","0.0-25.0","BD6FD73B110D40F1ABAE6637FB70522B","562d1c78-9a4d-409f-af32-f710762fe9fd","60874837-17fe-43d8-ba5e-75a805c652dd","","null","<div style=""display: flex; justify-content: center; align-items: center;"">
                <img src=""images/causal/causal_series_17/causal_series_17_c.jpg"" style=""width: 300px; height: 300px;"" />
              </div>","null",""
"","","","","","html-button-response","26","94576","0.0-26.0","BD6FD73B110D40F1ABAE6637FB70522B","562d1c78-9a4d-409f-af32-f710762fe9fd","60874837-17fe-43d8-ba5e-75a805c652dd","","880","
    <div style=""display: flex; justify-content: center; align-items: center;"">
      <img src=""images/red_deck_2.png"" style=""width: 300px; height: 300px; margin-right: 10px;"" />
      <img src=""images/blue_deck_1.png"" style=""width: 300px; height: 300px;"" />
    </div>","1","1"
"","","","","","html-keyboard-response","27","97588","0.0-27.0-1.0-0.0","BD6FD73B110D40F1ABAE6637FB70522B","562d1c78-9a4d-409f-af32-f710762fe9fd","60874837-17fe-43d8-ba5e-75a805c652dd","","null","<div style=""display: flex; justify-content: center; align-items: center;"">
                <img src=""images/semantic/semantic_series_16/semantic_series_16_d.jpg"" style=""width: 300px; height: 300px;"" />
              </div>","null",""
"","","","","","html-keyboard-response","28","100588","0.0-28.0","BD6FD73B110D40F1ABAE6637FB70522B","562d1c78-9a4d-409f-af32-f710762fe9fd","60874837-17fe-43d8-ba5e-75a805c652dd","","null","<div style=""display: flex; justify-content: center; align-items: center;"">
                <img src=""images/other/blank.jpg"" style=""width: 300px; height: 300px;"" />
              </div>","null",""
"","","","","","html-keyboard-response","29","103599","0.0-29.0","BD6FD73B110D40F1ABAE6637FB70522B","562d1c78-9a4d-409f-af32-f710762fe9fd","60874837-17fe-43d8-ba5e-75a805c652dd","","null","<div style=""display: flex; justify-content: center; align-items: center;"">
                <img src=""images/causal/causal_series_11/causal_series_11_a.jpg"" style=""width: 300px; height: 300px;"" />
              </div>","null",""
"","","","","","html-keyboard-response","30","106604","0.0-30.0","BD6FD73B110D40F1ABAE6637FB70522B","562d1c78-9a4d-409f-af32-f710762fe9fd","60874837-17fe-43d8-ba5e-75a805c652dd","","null","<div style=""display: flex; justify-content: center; align-items: center;"">
                <img src=""images/causal/causal_series_11/causal_series_11_b.jpg"" style=""width: 300px; height: 300px;"" />
              </div>","null",""
"","","","","","html-keyboard-response","31","109612","0.0-31.0","BD6FD73B110D40F1ABAE6637FB70522B","562d1c78-9a4d-409f-af32-f710762fe9fd","60874837-17fe-43d8-ba5e-75a805c652dd","","null","<div style=""display: flex; justify-content: center; align-items: center;"">
                <img src=""images/causal/causal_series_11/causal_series_11_c.jpg"" style=""width: 300px; height: 300px;"" />
              </div>","null",""
"","","","","","html-button-response","32","110984","0.0-32.0","BD6FD73B110D40F1ABAE6637FB70522B","562d1c78-9a4d-409f-af32-f710762fe9fd","60874837-17fe-43d8-ba5e-75a805c652dd","","1371","
    <div style=""display: flex; justify-content: center; align-items: center;"">
      <img src=""images/red_deck_2.png"" style=""width: 300px; height: 300px; margin-right: 10px;"" />
      <img src=""images/blue_deck_1.png"" style=""width: 300px; height: 300px;"" />
    </div>","0","0"
"","","","","","html-keyboard-response","33","113994","0.0-33.0-0.0-0.0","BD6FD73B110D40F1ABAE6637FB70522B","562d1c78-9a4d-409f-af32-f710762fe9fd","60874837-17fe-43d8-ba5e-75a805c652dd","","null","<div style=""display: flex; justify-content: center; align-items: center;"">
                <img src=""images/causal/causal_series_11/causal_series_11_d.jpg"" style=""width: 300px; height: 300px;"" />
              </div>","null",""
"","","","","","html-keyboard-response","34","116999","0.0-34.0","BD6FD73B110D40F1ABAE6637FB70522B","562d1c78-9a4d-409f-af32-f710762fe9fd","60874837-17fe-43d8-ba5e-75a805c652dd","","null","<div style=""display: flex; justify-content: center; align-items: center;"">
                <img src=""images/other/blank.jpg"" style=""width: 300px; height: 300px;"" />
              </div>","null",""
"","","","","","html-keyboard-response","35","120007","0.0-35.0","BD6FD73B110D40F1ABAE6637FB70522B","562d1c78-9a4d-409f-af32-f710762fe9fd","60874837-17fe-43d8-ba5e-75a805c652dd","","null","<div style=""display: flex; justify-content: center; align-items: center;"">
                <img src=""images/causal/causal_series_15/causal_series_15_a.jpg"" style=""width: 300px; height: 300px;"" />
              </div>","null",""
"","","","","","html-keyboard-response","36","123011","0.0-36.0","BD6FD73B110D40F1ABAE6637FB70522B","562d1c78-9a4d-409f-af32-f710762fe9fd","60874837-17fe-43d8-ba5e-75a805c652dd","","null","<div style=""display: flex; justify-content: center; align-items: center;"">
                <img src=""images/causal/causal_series_15/causal_series_15_b.jpg"" style=""width: 300px; height: 300px;"" />
              </div>","null",""
"","","","","","html-keyboard-response","37","126015","0.0-37.0","BD6FD73B110D40F1ABAE6637FB70522B","562d1c78-9a4d-409f-af32-f710762fe9fd","60874837-17fe-43d8-ba5e-75a805c652dd","","null","<div style=""display: flex; justify-content: center; align-items: center;"">
                <img src=""images/causal/causal_series_15/causal_series_15_c.jpg"" style=""width: 300px; height: 300px;"" />
              </div>","null",""
"","","","","","html-button-response","38","127670","0.0-38.0","BD6FD73B110D40F1ABAE6637FB70522B","562d1c78-9a4d-409f-af32-f710762fe9fd","60874837-17fe-43d8-ba5e-75a805c652dd","","1654","
    <div style=""display: flex; justify-content: center; align-items: center;"">
      <img src=""images/red_deck_2.png"" style=""width: 300px; height: 300px; margin-right: 10px;"" />
      <img src=""images/blue_deck_1.png"" style=""width: 300px; height: 300px;"" />
    </div>","0","0"
"","","","","","html-keyboard-response","39","130684","0.0-39.0-0.0-0.0","BD6FD73B110D40F1ABAE6637FB70522B","562d1c78-9a4d-409f-af32-f710762fe9fd","60874837-17fe-43d8-ba5e-75a805c652dd","","null","<div style=""display: flex; justify-content: center; align-items: center;"">
                <img src=""images/causal/causal_series_15/causal_series_15_d.jpg"" style=""width: 300px; height: 300px;"" />
              </div>","null",""
"","","","","","html-keyboard-response","40","133692","0.0-40.0","BD6FD73B110D40F1ABAE6637FB70522B","562d1c78-9a4d-409f-af32-f710762fe9fd","60874837-17fe-43d8-ba5e-75a805c652dd","","null","<div style=""display: flex; justify-content: center; align-items: center;"">
                <img src=""images/other/blank.jpg"" style=""width: 300px; height: 300px;"" />
              </div>","null",""
"","","","","","html-keyboard-response","41","136698","0.0-41.0","BD6FD73B110D40F1ABAE6637FB70522B","562d1c78-9a4d-409f-af32-f710762fe9fd","60874837-17fe-43d8-ba5e-75a805c652dd","","null","<div style=""display: flex; justify-content: center; align-items: center;"">
                <img src=""images/causal/causal_series_7/causal_series_7_a.jpg"" style=""width: 300px; height: 300px;"" />
              </div>","null",""
"","","","","","html-keyboard-response","42","139704","0.0-42.0","BD6FD73B110D40F1ABAE6637FB70522B","562d1c78-9a4d-409f-af32-f710762fe9fd","60874837-17fe-43d8-ba5e-75a805c652dd","","null","<div style=""display: flex; justify-content: center; align-items: center;"">
                <img src=""images/causal/causal_series_7/causal_series_7_b.jpg"" style=""width: 300px; height: 300px;"" />
              </div>","null",""
"","","","","","html-keyboard-response","43","142712","0.0-43.0","BD6FD73B110D40F1ABAE6637FB70522B","562d1c78-9a4d-409f-af32-f710762fe9fd","60874837-17fe-43d8-ba5e-75a805c652dd","","null","<div style=""display: flex; justify-content: center; align-items: center;"">
                <img src=""images/causal/causal_series_7/causal_series_7_c.jpg"" style=""width: 300px; height: 300px;"" />
              </div>","null",""
"","","","","","html-button-response","44","143783","0.0-44.0","BD6FD73B110D40F1ABAE6637FB70522B","562d1c78-9a4d-409f-af32-f710762fe9fd","60874837-17fe-43d8-ba5e-75a805c652dd","","1071","
    <div style=""display: flex; justify-content: center; align-items: center;"">
      <img src=""images/red_deck_2.png"" style=""width: 300px; height: 300px; margin-right: 10px;"" />
      <img src=""images/blue_deck_1.png"" style=""width: 300px; height: 300px;"" />
    </div>","1","1"
"","","","","","html-keyboard-response","45","146785","0.0-45.0-1.0-0.0","BD6FD73B110D40F1ABAE6637FB70522B","562d1c78-9a4d-409f-af32-f710762fe9fd","60874837-17fe-43d8-ba5e-75a805c652dd","","null","<div style=""display: flex; justify-content: center; align-items: center;"">
                <img src=""images/semantic/semantic_series_6/semantic_series_6_d.jpg"" style=""width: 300px; height: 300px;"" />
              </div>","null",""
"","","","","","html-keyboard-response","46","149797","0.0-46.0","BD6FD73B110D40F1ABAE6637FB70522B","562d1c78-9a4d-409f-af32-f710762fe9fd","60874837-17fe-43d8-ba5e-75a805c652dd","","null","<div style=""display: flex; justify-content: center; align-items: center;"">
                <img src=""images/other/blank.jpg"" style=""width: 300px; height: 300px;"" />
              </div>","null",""
"","","","","","html-keyboard-response","47","152803","0.0-47.0","BD6FD73B110D40F1ABAE6637FB70522B","562d1c78-9a4d-409f-af32-f710762fe9fd","60874837-17fe-43d8-ba5e-75a805c652dd","","null","<div style=""display: flex; justify-content: center; align-items: center;"">
                <img src=""images/causal/causal_series_8/causal_series_8_a.jpg"" style=""width: 300px; height: 300px;"" />
              </div>","null",""
"","","","","","html-keyboard-response","48","155811","0.0-48.0","BD6FD73B110D40F1ABAE6637FB70522B","562d1c78-9a4d-409f-af32-f710762fe9fd","60874837-17fe-43d8-ba5e-75a805c652dd","","null","<div style=""display: flex; justify-content: center; align-items: center;"">
                <img src=""images/causal/causal_series_8/causal_series_8_b.jpg"" style=""width: 300px; height: 300px;"" />
              </div>","null",""
"","","","","","html-keyboard-response","49","158815","0.0-49.0","BD6FD73B110D40F1ABAE6637FB70522B","562d1c78-9a4d-409f-af32-f710762fe9fd","60874837-17fe-43d8-ba5e-75a805c652dd","","null","<div style=""display: flex; justify-content: center; align-items: center;"">
                <img src=""images/causal/causal_series_8/causal_series_8_c.jpg"" style=""width: 300px; height: 300px;"" />
              </div>","null",""
"","","","","","html-button-response","50","159732","0.0-50.0","BD6FD73B110D40F1ABAE6637FB70522B","562d1c78-9a4d-409f-af32-f710762fe9fd","60874837-17fe-43d8-ba5e-75a805c652dd","","916","
    <div style=""display: flex; justify-content: center; align-items: center;"">
      <img src=""images/red_deck_2.png"" style=""width: 300px; height: 300px; margin-right: 10px;"" />
      <img src=""images/blue_deck_1.png"" style=""width: 300px; height: 300px;"" />
    </div>","0","0"
"","","","","","html-keyboard-response","51","162734","0.0-51.0-0.0-0.0","BD6FD73B110D40F1ABAE6637FB70522B","562d1c78-9a4d-409f-af32-f710762fe9fd","60874837-17fe-43d8-ba5e-75a805c652dd","","null","<div style=""display: flex; justify-content: center; align-items: center;"">
                <img src=""images/causal/causal_series_8/causal_series_8_d.jpg"" style=""width: 300px; height: 300px;"" />
              </div>","null",""
"","","","","","html-keyboard-response","52","165742","0.0-52.0","BD6FD73B110D40F1ABAE6637FB70522B","562d1c78-9a4d-409f-af32-f710762fe9fd","60874837-17fe-43d8-ba5e-75a805c652dd","","null","<div style=""display: flex; justify-content: center; align-items: center;"">
                <img src=""images/other/blank.jpg"" style=""width: 300px; height: 300px;"" />
              </div>","null",""
"","","","","","html-keyboard-response","53","168748","0.0-53.0","BD6FD73B110D40F1ABAE6637FB70522B","562d1c78-9a4d-409f-af32-f710762fe9fd","60874837-17fe-43d8-ba5e-75a805c652dd","","null","<div style=""display: flex; justify-content: center; align-items: center;"">
                <img src=""images/causal/causal_series_4/causal_series_4_a.jpg"" style=""width: 300px; height: 300px;"" />
              </div>","null",""
"","","","","","html-keyboard-response","54","171754","0.0-54.0","BD6FD73B110D40F1ABAE6637FB70522B","562d1c78-9a4d-409f-af32-f710762fe9fd","60874837-17fe-43d8-ba5e-75a805c652dd","","null","<div style=""display: flex; justify-content: center; align-items: center;"">
                <img src=""images/causal/causal_series_4/causal_series_4_b.jpg"" style=""width: 300px; height: 300px;"" />
              </div>","null",""
"","","","","","html-keyboard-response","55","174762","0.0-55.0","BD6FD73B110D40F1ABAE6637FB70522B","562d1c78-9a4d-409f-af32-f710762fe9fd","60874837-17fe-43d8-ba5e-75a805c652dd","","null","<div style=""display: flex; justify-content: center; align-items: center;"">
                <img src=""images/causal/causal_series_4/causal_series_4_c.jpg"" style=""width: 300px; height: 300px;"" />
              </div>","null",""
"","","","","","html-button-response","56","180174","0.0-56.0","BD6FD73B110D40F1ABAE6637FB70522B","562d1c78-9a4d-409f-af32-f710762fe9fd","60874837-17fe-43d8-ba5e-75a805c652dd","","5412","
    <div style=""display: flex; justify-content: center; align-items: center;"">
      <img src=""images/red_deck_2.png"" style=""width: 300px; height: 300px; margin-right: 10px;"" />
      <img src=""images/blue_deck_1.png"" style=""width: 300px; height: 300px;"" />
    </div>","0","0"
"","","","","","html-keyboard-response","57","183190","0.0-57.0-0.0-0.0","BD6FD73B110D40F1ABAE6637FB70522B","562d1c78-9a4d-409f-af32-f710762fe9fd","60874837-17fe-43d8-ba5e-75a805c652dd","","null","<div style=""display: flex; justify-content: center; align-items: center;"">
                <img src=""images/causal/causal_series_4/causal_series_4_d.jpg"" style=""width: 300px; height: 300px;"" />
              </div>","null",""
"","","","","","html-keyboard-response","58","186198","0.0-58.0","BD6FD73B110D40F1ABAE6637FB70522B","562d1c78-9a4d-409f-af32-f710762fe9fd","60874837-17fe-43d8-ba5e-75a805c652dd","","null","<div style=""display: flex; justify-content: center; align-items: center;"">
                <img src=""images/other/blank.jpg"" style=""width: 300px; height: 300px;"" />
              </div>","null",""
"","","","","","html-keyboard-response","59","189204","0.0-59.0","BD6FD73B110D40F1ABAE6637FB70522B","562d1c78-9a4d-409f-af32-f710762fe9fd","60874837-17fe-43d8-ba5e-75a805c652dd","","null","<div style=""display: flex; justify-content: center; align-items: center;"">
                <img src=""images/causal/causal_series_10/causal_series_10_a.jpg"" style=""width: 300px; height: 300px;"" />
              </div>","null",""
"","","","","","html-keyboard-response","60","192211","0.0-60.0","BD6FD73B110D40F1ABAE6637FB70522B","562d1c78-9a4d-409f-af32-f710762fe9fd","60874837-17fe-43d8-ba5e-75a805c652dd","","null","<div style=""display: flex; justify-content: center; align-items: center;"">
                <img src=""images/causal/causal_series_10/causal_series_10_b.jpg"" style=""width: 300px; height: 300px;"" />
              </div>","null",""
"","","","","","html-keyboard-response","61","195219","0.0-61.0","BD6FD73B110D40F1ABAE6637FB70522B","562d1c78-9a4d-409f-af32-f710762fe9fd","60874837-17fe-43d8-ba5e-75a805c652dd","","null","<div style=""display: flex; justify-content: center; align-items: center;"">
                <img src=""images/causal/causal_series_10/causal_series_10_c.jpg"" style=""width: 300px; height: 300px;"" />
              </div>","null",""
"","","","","","html-button-response","62","196689","0.0-62.0","BD6FD73B110D40F1ABAE6637FB70522B","562d1c78-9a4d-409f-af32-f710762fe9fd","60874837-17fe-43d8-ba5e-75a805c652dd","","1469","
    <div style=""display: flex; justify-content: center; align-items: center;"">
      <img src=""images/red_deck_2.png"" style=""width: 300px; height: 300px; margin-right: 10px;"" />
      <img src=""images/blue_deck_1.png"" style=""width: 300px; height: 300px;"" />
    </div>","1","1"
"","","","","","html-keyboard-response","63","199696","0.0-63.0-1.0-0.0","BD6FD73B110D40F1ABAE6637FB70522B","562d1c78-9a4d-409f-af32-f710762fe9fd","60874837-17fe-43d8-ba5e-75a805c652dd","","null","<div style=""display: flex; justify-content: center; align-items: center;"">
                <img src=""images/semantic/semantic_series_9/semantic_series_9_d.jpg"" style=""width: 300px; height: 300px;"" />
              </div>","null",""
"","","","","","html-keyboard-response","64","202702","0.0-64.0","BD6FD73B110D40F1ABAE6637FB70522B","562d1c78-9a4d-409f-af32-f710762fe9fd","60874837-17fe-43d8-ba5e-75a805c652dd","","null","<div style=""display: flex; justify-content: center; align-items: center;"">
                <img src=""images/other/blank.jpg"" style=""width: 300px; height: 300px;"" />
              </div>","null",""
"","","","","","html-keyboard-response","65","205710","0.0-65.0","BD6FD73B110D40F1ABAE6637FB70522B","562d1c78-9a4d-409f-af32-f710762fe9fd","60874837-17fe-43d8-ba5e-75a805c652dd","","null","<div style=""display: flex; justify-content: center; align-items: center;"">
                <img src=""images/causal/causal_series_14/causal_series_14_a.jpg"" style=""width: 300px; height: 300px;"" />
              </div>","null",""
"","","","","","html-keyboard-response","66","208715","0.0-66.0","BD6FD73B110D40F1ABAE6637FB70522B","562d1c78-9a4d-409f-af32-f710762fe9fd","60874837-17fe-43d8-ba5e-75a805c652dd","","null","<div style=""display: flex; justify-content: center; align-items: center;"">
                <img src=""images/causal/causal_series_14/causal_series_14_b.jpg"" style=""width: 300px; height: 300px;"" />
              </div>","null",""
"","","","","","html-keyboard-response","67","211723","0.0-67.0","BD6FD73B110D40F1ABAE6637FB70522B","562d1c78-9a4d-409f-af32-f710762fe9fd","60874837-17fe-43d8-ba5e-75a805c652dd","","null","<div style=""display: flex; justify-content: center; align-items: center;"">
                <img src=""images/causal/causal_series_14/causal_series_14_c.jpg"" style=""width: 300px; height: 300px;"" />
              </div>","null",""
"","","","","","html-button-response","68","213484","0.0-68.0","BD6FD73B110D40F1ABAE6637FB70522B","562d1c78-9a4d-409f-af32-f710762fe9fd","60874837-17fe-43d8-ba5e-75a805c652dd","","1760","
    <div style=""display: flex; justify-content: center; align-items: center;"">
      <img src=""images/red_deck_2.png"" style=""width: 300px; height: 300px; margin-right: 10px;"" />
      <img src=""images/blue_deck_1.png"" style=""width: 300px; height: 300px;"" />
    </div>","0","0"
"","","","","","html-keyboard-response","69","216488","0.0-69.0-0.0-0.0","BD6FD73B110D40F1ABAE6637FB70522B","562d1c78-9a4d-409f-af32-f710762fe9fd","60874837-17fe-43d8-ba5e-75a805c652dd","","null","<div style=""display: flex; justify-content: center; align-items: center;"">
                <img src=""images/causal/causal_series_14/causal_series_14_d.jpg"" style=""width: 300px; height: 300px;"" />
              </div>","null",""
"","","","","","html-keyboard-response","70","219495","0.0-70.0","BD6FD73B110D40F1ABAE6637FB70522B","562d1c78-9a4d-409f-af32-f710762fe9fd","60874837-17fe-43d8-ba5e-75a805c652dd","","null","<div style=""display: flex; justify-content: center; align-items: center;"">
                <img src=""images/other/blank.jpg"" style=""width: 300px; height: 300px;"" />
              </div>","null",""
"","","","","","html-keyboard-response","71","222501","0.0-71.0","BD6FD73B110D40F1ABAE6637FB70522B","562d1c78-9a4d-409f-af32-f710762fe9fd","60874837-17fe-43d8-ba5e-75a805c652dd","","null","<div style=""display: flex; justify-content: center; align-items: center;"">
                <img src=""images/causal/causal_series_16/causal_series_16_a.jpg"" style=""width: 300px; height: 300px;"" />
              </div>","null",""
"","","","","","html-keyboard-response","72","225508","0.0-72.0","BD6FD73B110D40F1ABAE6637FB70522B","562d1c78-9a4d-409f-af32-f710762fe9fd","60874837-17fe-43d8-ba5e-75a805c652dd","","null","<div style=""display: flex; justify-content: center; align-items: center;"">
                <img src=""images/causal/causal_series_16/causal_series_16_b.jpg"" style=""width: 300px; height: 300px;"" />
              </div>","null",""
"","","","","","html-keyboard-response","73","228515","0.0-73.0","BD6FD73B110D40F1ABAE6637FB70522B","562d1c78-9a4d-409f-af32-f710762fe9fd","60874837-17fe-43d8-ba5e-75a805c652dd","","null","<div style=""display: flex; justify-content: center; align-items: center;"">
                <img src=""images/causal/causal_series_16/causal_series_16_c.jpg"" style=""width: 300px; height: 300px;"" />
              </div>","null",""
"","","","","","html-button-response","74","229932","0.0-74.0","BD6FD73B110D40F1ABAE6637FB70522B","562d1c78-9a4d-409f-af32-f710762fe9fd","60874837-17fe-43d8-ba5e-75a805c652dd","","1416","
    <div style=""display: flex; justify-content: center; align-items: center;"">
      <img src=""images/red_deck_2.png"" style=""width: 300px; height: 300px; margin-right: 10px;"" />
      <img src=""images/blue_deck_1.png"" style=""width: 300px; height: 300px;"" />
    </div>","0","0"
"","","","","","html-keyboard-response","75","232944","0.0-75.0-0.0-0.0","BD6FD73B110D40F1ABAE6637FB70522B","562d1c78-9a4d-409f-af32-f710762fe9fd","60874837-17fe-43d8-ba5e-75a805c652dd","","null","<div style=""display: flex; justify-content: center; align-items: center;"">
                <img src=""images/causal/causal_series_16/causal_series_16_d.jpg"" style=""width: 300px; height: 300px;"" />
              </div>","null",""
"","","","","","html-keyboard-response","76","235951","0.0-76.0","BD6FD73B110D40F1ABAE6637FB70522B","562d1c78-9a4d-409f-af32-f710762fe9fd","60874837-17fe-43d8-ba5e-75a805c652dd","","null","<div style=""display: flex; justify-content: center; align-items: center;"">
                <img src=""images/other/blank.jpg"" style=""width: 300px; height: 300px;"" />
              </div>","null",""
"","","","","","html-keyboard-response","77","238959","0.0-77.0","BD6FD73B110D40F1ABAE6637FB70522B","562d1c78-9a4d-409f-af32-f710762fe9fd","60874837-17fe-43d8-ba5e-75a805c652dd","","null","<div style=""display: flex; justify-content: center; align-items: center;"">
                <img src=""images/causal/causal_series_3/causal_series_3_a.jpg"" style=""width: 300px; height: 300px;"" />
              </div>","null",""
"","","","","","html-keyboard-response","78","241962","0.0-78.0","BD6FD73B110D40F1ABAE6637FB70522B","562d1c78-9a4d-409f-af32-f710762fe9fd","60874837-17fe-43d8-ba5e-75a805c652dd","","null","<div style=""display: flex; justify-content: center; align-items: center;"">
                <img src=""images/causal/causal_series_3/causal_series_3_b.jpg"" style=""width: 300px; height: 300px;"" />
              </div>","null",""
"","","","","","html-keyboard-response","79","244971","0.0-79.0","BD6FD73B110D40F1ABAE6637FB70522B","562d1c78-9a4d-409f-af32-f710762fe9fd","60874837-17fe-43d8-ba5e-75a805c652dd","","null","<div style=""display: flex; justify-content: center; align-items: center;"">
                <img src=""images/causal/causal_series_3/causal_series_3_c.jpg"" style=""width: 300px; height: 300px;"" />
              </div>","null",""
"","","","","","html-button-response","80","245816","0.0-80.0","BD6FD73B110D40F1ABAE6637FB70522B","562d1c78-9a4d-409f-af32-f710762fe9fd","60874837-17fe-43d8-ba5e-75a805c652dd","","845","
    <div style=""display: flex; justify-content: center; align-items: center;"">
      <img src=""images/red_deck_2.png"" style=""width: 300px; height: 300px; margin-right: 10px;"" />
      <img src=""images/blue_deck_1.png"" style=""width: 300px; height: 300px;"" />
    </div>","1","1"
"","","","","","html-keyboard-response","81","248823","0.0-81.0-1.0-0.0","BD6FD73B110D40F1ABAE6637FB70522B","562d1c78-9a4d-409f-af32-f710762fe9fd","60874837-17fe-43d8-ba5e-75a805c652dd","","null","<div style=""display: flex; justify-content: center; align-items: center;"">
                <img src=""images/semantic/semantic_series_2/semantic_series_2_d.jpg"" style=""width: 300px; height: 300px;"" />
              </div>","null",""
"","","","","","html-keyboard-response","82","251829","0.0-82.0","BD6FD73B110D40F1ABAE6637FB70522B","562d1c78-9a4d-409f-af32-f710762fe9fd","60874837-17fe-43d8-ba5e-75a805c652dd","","null","<div style=""display: flex; justify-content: center; align-items: center;"">
                <img src=""images/other/blank.jpg"" style=""width: 300px; height: 300px;"" />
              </div>","null",""
"","","","","","html-keyboard-response","83","254835","0.0-83.0","BD6FD73B110D40F1ABAE6637FB70522B","562d1c78-9a4d-409f-af32-f710762fe9fd","60874837-17fe-43d8-ba5e-75a805c652dd","","null","<div style=""display: flex; justify-content: center; align-items: center;"">
                <img src=""images/causal/causal_series_1/causal_series_1_a.jpg"" style=""width: 300px; height: 300px;"" />
              </div>","null",""
"","","","","","html-keyboard-response","84","257844","0.0-84.0","BD6FD73B110D40F1ABAE6637FB70522B","562d1c78-9a4d-409f-af32-f710762fe9fd","60874837-17fe-43d8-ba5e-75a805c652dd","","null","<div style=""display: flex; justify-content: center; align-items: center;"">
                <img src=""images/causal/causal_series_1/causal_series_1_b.jpg"" style=""width: 300px; height: 300px;"" />
              </div>","null",""
"","","","","","html-keyboard-response","85","260845","0.0-85.0","BD6FD73B110D40F1ABAE6637FB70522B","562d1c78-9a4d-409f-af32-f710762fe9fd","60874837-17fe-43d8-ba5e-75a805c652dd","","null","<div style=""display: flex; justify-content: center; align-items: center;"">
                <img src=""images/causal/causal_series_1/causal_series_1_c.jpg"" style=""width: 300px; height: 300px;"" />
              </div>","null",""
"","","","","","html-button-response","86","261678","0.0-86.0","BD6FD73B110D40F1ABAE6637FB70522B","562d1c78-9a4d-409f-af32-f710762fe9fd","60874837-17fe-43d8-ba5e-75a805c652dd","","833","
    <div style=""display: flex; justify-content: center; align-items: center;"">
      <img src=""images/red_deck_2.png"" style=""width: 300px; height: 300px; margin-right: 10px;"" />
      <img src=""images/blue_deck_1.png"" style=""width: 300px; height: 300px;"" />
    </div>","1","1"
"","","","","","html-keyboard-response","87","264687","0.0-87.0-1.0-0.0","BD6FD73B110D40F1ABAE6637FB70522B","562d1c78-9a4d-409f-af32-f710762fe9fd","60874837-17fe-43d8-ba5e-75a805c652dd","","null","<div style=""display: flex; justify-content: center; align-items: center;"">
                <img src=""images/semantic/semantic_series_18/semantic_series_18_d.jpg"" style=""width: 300px; height: 300px;"" />
              </div>","null",""
"","","","","","html-keyboard-response","88","267692","0.0-88.0","BD6FD73B110D40F1ABAE6637FB70522B","562d1c78-9a4d-409f-af32-f710762fe9fd","60874837-17fe-43d8-ba5e-75a805c652dd","","null","<div style=""display: flex; justify-content: center; align-items: center;"">
                <img src=""images/other/blank.jpg"" style=""width: 300px; height: 300px;"" />
              </div>","null",""
"","","","","","html-keyboard-response","89","270699","0.0-89.0","BD6FD73B110D40F1ABAE6637FB70522B","562d1c78-9a4d-409f-af32-f710762fe9fd","60874837-17fe-43d8-ba5e-75a805c652dd","","null","<div style=""display: flex; justify-content: center; align-items: center;"">
                <img src=""images/causal/causal_series_5/causal_series_5_a.jpg"" style=""width: 300px; height: 300px;"" />
              </div>","null",""
"","","","","","html-keyboard-response","90","273707","0.0-90.0","BD6FD73B110D40F1ABAE6637FB70522B","562d1c78-9a4d-409f-af32-f710762fe9fd","60874837-17fe-43d8-ba5e-75a805c652dd","","null","<div style=""display: flex; justify-content: center; align-items: center;"">
                <img src=""images/causal/causal_series_5/causal_series_5_b.jpg"" style=""width: 300px; height: 300px;"" />
              </div>","null",""
"","","","","","html-keyboard-response","91","276711","0.0-91.0","BD6FD73B110D40F1ABAE6637FB70522B","562d1c78-9a4d-409f-af32-f710762fe9fd","60874837-17fe-43d8-ba5e-75a805c652dd","","null","<div style=""display: flex; justify-content: center; align-items: center;"">
                <img src=""images/causal/causal_series_5/causal_series_5_c.jpg"" style=""width: 300px; height: 300px;"" />
              </div>","null",""
"","","","","","html-button-response","92","277963","0.0-92.0","BD6FD73B110D40F1ABAE6637FB70522B","562d1c78-9a4d-409f-af32-f710762fe9fd","60874837-17fe-43d8-ba5e-75a805c652dd","","1251","
    <div style=""display: flex; justify-content: center; align-items: center;"">
      <img src=""images/red_deck_2.png"" style=""width: 300px; height: 300px; margin-right: 10px;"" />
      <img src=""images/blue_deck_1.png"" style=""width: 300px; height: 300px;"" />
    </div>","0","0"
"","","","","","html-keyboard-response","93","280966","0.0-93.0-0.0-0.0","BD6FD73B110D40F1ABAE6637FB70522B","562d1c78-9a4d-409f-af32-f710762fe9fd","60874837-17fe-43d8-ba5e-75a805c652dd","","null","<div style=""display: flex; justify-content: center; align-items: center;"">
                <img src=""images/causal/causal_series_5/causal_series_5_d.jpg"" style=""width: 300px; height: 300px;"" />
              </div>","null",""
"","","","","","html-keyboard-response","94","283974","0.0-94.0","BD6FD73B110D40F1ABAE6637FB70522B","562d1c78-9a4d-409f-af32-f710762fe9fd","60874837-17fe-43d8-ba5e-75a805c652dd","","null","<div style=""display: flex; justify-content: center; align-items: center;"">
                <img src=""images/other/blank.jpg"" style=""width: 300px; height: 300px;"" />
              </div>","null",""
"","","","","","html-keyboard-response","95","286979","0.0-95.0","BD6FD73B110D40F1ABAE6637FB70522B","562d1c78-9a4d-409f-af32-f710762fe9fd","60874837-17fe-43d8-ba5e-75a805c652dd","","null","<div style=""display: flex; justify-content: center; align-items: center;"">
                <img src=""images/causal/causal_series_12/causal_series_12_a.jpg"" style=""width: 300px; height: 300px;"" />
              </div>","null",""
"","","","","","html-keyboard-response","96","289988","0.0-96.0","BD6FD73B110D40F1ABAE6637FB70522B","562d1c78-9a4d-409f-af32-f710762fe9fd","60874837-17fe-43d8-ba5e-75a805c652dd","","null","<div style=""display: flex; justify-content: center; align-items: center;"">
                <img src=""images/causal/causal_series_12/causal_series_12_b.jpg"" style=""width: 300px; height: 300px;"" />
              </div>","null",""
"","","","","","html-keyboard-response","97","292997","0.0-97.0","BD6FD73B110D40F1ABAE6637FB70522B","562d1c78-9a4d-409f-af32-f710762fe9fd","60874837-17fe-43d8-ba5e-75a805c652dd","","null","<div style=""display: flex; justify-content: center; align-items: center;"">
                <img src=""images/causal/causal_series_12/causal_series_12_c.jpg"" style=""width: 300px; height: 300px;"" />
              </div>","null",""
"","","","","","html-button-response","98","294630","0.0-98.0","BD6FD73B110D40F1ABAE6637FB70522B","562d1c78-9a4d-409f-af32-f710762fe9fd","60874837-17fe-43d8-ba5e-75a805c652dd","","1633","
    <div style=""display: flex; justify-content: center; align-items: center;"">
      <img src=""images/red_deck_2.png"" style=""width: 300px; height: 300px; margin-right: 10px;"" />
      <img src=""images/blue_deck_1.png"" style=""width: 300px; height: 300px;"" />
    </div>","0","0"
"","","","","","html-keyboard-response","99","297632","0.0-99.0-0.0-0.0","BD6FD73B110D40F1ABAE6637FB70522B","562d1c78-9a4d-409f-af32-f710762fe9fd","60874837-17fe-43d8-ba5e-75a805c652dd","","null","<div style=""display: flex; justify-content: center; align-items: center;"">
                <img src=""images/causal/causal_series_12/causal_series_12_d.jpg"" style=""width: 300px; height: 300px;"" />
              </div>","null",""
"","","","","","html-keyboard-response","100","300639","0.0-100.0","BD6FD73B110D40F1ABAE6637FB70522B","562d1c78-9a4d-409f-af32-f710762fe9fd","60874837-17fe-43d8-ba5e-75a805c652dd","","null","<div style=""display: flex; justify-content: center; align-items: center;"">
                <img src=""images/other/blank.jpg"" style=""width: 300px; height: 300px;"" />
              </div>","null",""
"","","","","","html-keyboard-response","101","303646","0.0-101.0","BD6FD73B110D40F1ABAE6637FB70522B","562d1c78-9a4d-409f-af32-f710762fe9fd","60874837-17fe-43d8-ba5e-75a805c652dd","","null","<div style=""display: flex; justify-content: center; align-items: center;"">
                <img src=""images/causal/causal_series_2/causal_series_2_a.jpg"" style=""width: 300px; height: 300px;"" />
              </div>","null",""
"","","","","","html-keyboard-response","102","306652","0.0-102.0","BD6FD73B110D40F1ABAE6637FB70522B","562d1c78-9a4d-409f-af32-f710762fe9fd","60874837-17fe-43d8-ba5e-75a805c652dd","","null","<div style=""display: flex; justify-content: center; align-items: center;"">
                <img src=""images/causal/causal_series_2/causal_series_2_b.jpg"" style=""width: 300px; height: 300px;"" />
              </div>","null",""
"","","","","","html-keyboard-response","103","309657","0.0-103.0","BD6FD73B110D40F1ABAE6637FB70522B","562d1c78-9a4d-409f-af32-f710762fe9fd","60874837-17fe-43d8-ba5e-75a805c652dd","","null","<div style=""display: flex; justify-content: center; align-items: center;"">
                <img src=""images/causal/causal_series_2/causal_series_2_c.jpg"" style=""width: 300px; height: 300px;"" />
              </div>","null",""
"","","","","","html-button-response","104","315229","0.0-104.0","BD6FD73B110D40F1ABAE6637FB70522B","562d1c78-9a4d-409f-af32-f710762fe9fd","60874837-17fe-43d8-ba5e-75a805c652dd","","5571","
    <div style=""display: flex; justify-content: center; align-items: center;"">
      <img src=""images/red_deck_2.png"" style=""width: 300px; height: 300px; margin-right: 10px;"" />
      <img src=""images/blue_deck_1.png"" style=""width: 300px; height: 300px;"" />
    </div>","0","0"
"","","","","","html-keyboard-response","105","318230","0.0-105.0-0.0-0.0","BD6FD73B110D40F1ABAE6637FB70522B","562d1c78-9a4d-409f-af32-f710762fe9fd","60874837-17fe-43d8-ba5e-75a805c652dd","","null","<div style=""display: flex; justify-content: center; align-items: center;"">
                <img src=""images/causal/causal_series_2/causal_series_2_d.jpg"" style=""width: 300px; height: 300px;"" />
              </div>","null",""
"","","","","","html-keyboard-response","106","321236","0.0-106.0","BD6FD73B110D40F1ABAE6637FB70522B","562d1c78-9a4d-409f-af32-f710762fe9fd","60874837-17fe-43d8-ba5e-75a805c652dd","","null","<div style=""display: flex; justify-content: center; align-items: center;"">
                <img src=""images/other/blank.jpg"" style=""width: 300px; height: 300px;"" />
              </div>","null",""
"","","","","","html-keyboard-response","107","324244","0.0-107.0","BD6FD73B110D40F1ABAE6637FB70522B","562d1c78-9a4d-409f-af32-f710762fe9fd","60874837-17fe-43d8-ba5e-75a805c652dd","","null","<div style=""display: flex; justify-content: center; align-items: center;"">
                <img src=""images/causal/causal_series_9/causal_series_9_a.jpg"" style=""width: 300px; height: 300px;"" />
              </div>","null",""
"","","","","","html-keyboard-response","108","327259","0.0-108.0","BD6FD73B110D40F1ABAE6637FB70522B","562d1c78-9a4d-409f-af32-f710762fe9fd","60874837-17fe-43d8-ba5e-75a805c652dd","","null","<div style=""display: flex; justify-content: center; align-items: center;"">
                <img src=""images/causal/causal_series_9/causal_series_9_b.jpg"" style=""width: 300px; height: 300px;"" />
              </div>","null",""
"","","","","","html-keyboard-response","109","330266","0.0-109.0","BD6FD73B110D40F1ABAE6637FB70522B","562d1c78-9a4d-409f-af32-f710762fe9fd","60874837-17fe-43d8-ba5e-75a805c652dd","","null","<div style=""display: flex; justify-content: center; align-items: center;"">
                <img src=""images/causal/causal_series_9/causal_series_9_c.jpg"" style=""width: 300px; height: 300px;"" />
              </div>","null",""
"","","","","","html-button-response","110","332522","0.0-110.0","BD6FD73B110D40F1ABAE6637FB70522B","562d1c78-9a4d-409f-af32-f710762fe9fd","60874837-17fe-43d8-ba5e-75a805c652dd","","2255","
    <div style=""display: flex; justify-content: center; align-items: center;"">
      <img src=""images/red_deck_2.png"" style=""width: 300px; height: 300px; margin-right: 10px;"" />
      <img src=""images/blue_deck_1.png"" style=""width: 300px; height: 300px;"" />
    </div>","0","0"
"","","","","","html-keyboard-response","111","335527","0.0-111.0-0.0-0.0","BD6FD73B110D40F1ABAE6637FB70522B","562d1c78-9a4d-409f-af32-f710762fe9fd","60874837-17fe-43d8-ba5e-75a805c652dd","","null","<div style=""display: flex; justify-content: center; align-items: center;"">
                <img src=""images/causal/causal_series_9/causal_series_9_d.jpg"" style=""width: 300px; height: 300px;"" />
              </div>","null",""
"","","","","","html-keyboard-response","112","338532","0.0-112.0","BD6FD73B110D40F1ABAE6637FB70522B","562d1c78-9a4d-409f-af32-f710762fe9fd","60874837-17fe-43d8-ba5e-75a805c652dd","","null","<div style=""display: flex; justify-content: center; align-items: center;"">
                <img src=""images/other/blank.jpg"" style=""width: 300px; height: 300px;"" />
              </div>","null",""
"","","","","","survey-text","113","401936","0.0-113.0","BD6FD73B110D40F1ABAE6637FB70522B","562d1c78-9a4d-409f-af32-f710762fe9fd","60874837-17fe-43d8-ba5e-75a805c652dd","","63402","","{""Q0"":""One deck is red, one is blue. One gives the 4th picture for the story, and the other gives a random card""}",""
"","","","","","survey-text","114","413631","0.0-114.0","BD6FD73B110D40F1ABAE6637FB70522B","562d1c78-9a4d-409f-af32-f710762fe9fd","60874837-17fe-43d8-ba5e-75a805c652dd","","11693","","{""Q0"":""neither was interesting""}",""
"","","","","","html-button-response","115","422716","0.0-115.0","BD6FD73B110D40F1ABAE6637FB70522B","562d1c78-9a4d-409f-af32-f710762fe9fd","60874837-17fe-43d8-ba5e-75a805c652dd","","9085","Which color deck does the fourth image continue the story from the series?","1",""
"","","","","","html-button-response","116","425408","0.0-116.0","BD6FD73B110D40F1ABAE6637FB70522B","562d1c78-9a4d-409f-af32-f710762fe9fd","60874837-17fe-43d8-ba5e-75a805c652dd","","2692","Which color deck does the fourth image not follow the story from the series?","0",""
"","","","","","survey-text","117","431703","0.0-117.0","BD6FD73B110D40F1ABAE6637FB70522B","562d1c78-9a4d-409f-af32-f710762fe9fd","60874837-17fe-43d8-ba5e-75a805c652dd","","6293","","{""Q0"":""Female"",""Q1"":""25""}",""
"","","","","","instructions","118","436724","0.0-118.0","BD6FD73B110D40F1ABAE6637FB70522B","562d1c78-9a4d-409f-af32-f710762fe9fd","60874837-17fe-43d8-ba5e-75a805c652dd","[{""page_index"":0,""viewing_time"":5020}]","5021","","",""
