"success","timeout","failed_images","failed_audio","failed_video","trial_type","trial_index","time_elapsed","internal_node_id","subject_id","study_id","session_id","view_history","rt","stimulus","response","choice"
"true","false","[]","[]","[]","preload","0","101070","0.0-0.0","94F2C1CE6DA4482182A6BF3EB20E310B","9c9ebb88-af97-47ed-b624-2d9085486a74","7c9f784d-5202-4c36-a6e2-1fcf7bf41701","","","","",""
"","","","","","instructions","1","112061","0.0-1.0","94F2C1CE6DA4482182A6BF3EB20E310B","9c9ebb88-af97-47ed-b624-2d9085486a74","7c9f784d-5202-4c36-a6e2-1fcf7bf41701","[{""page_index"":0,""viewing_time"":10990}]","10990","","",""
"","","","","","instructions","2","134295","0.0-2.0","94F2C1CE6DA4482182A6BF3EB20E310B","9c9ebb88-af97-47ed-b624-2d9085486a74","7c9f784d-5202-4c36-a6e2-1fcf7bf41701","[{""page_index"":0,""viewing_time"":22231}]","22231","","",""
"true","","","","","fullscreen","3","137686","0.0-3.0","94F2C1CE6DA4482182A6BF3EB20E310B","9c9ebb88-af97-47ed-b624-2d9085486a74","7c9f784d-5202-4c36-a6e2-1fcf7bf41701","","2377","","",""
"","","","","","instructions","4","180613","0.0-4.0","94F2C1CE6DA4482182A6BF3EB20E310B","9c9ebb88-af97-47ed-b624-2d9085486a74","7c9f784d-5202-4c36-a6e2-1fcf7bf41701","[{""page_index"":0,""viewing_time"":42926}]","42926","","",""
"","","","","","html-keyboard-response","5","183626","0.0-5.0","94F2C1CE6DA4482182A6BF3EB20E310B","9c9ebb88-af97-47ed-b624-2d9085486a74","7c9f784d-5202-4c36-a6e2-1fcf7bf41701","","null","<div style=""display: flex; justify-content: center; align-items: center;"">
                <img src=""images/causal/causal_series_18/causal_series_18_a.jpg"" style=""width: 300px; height: 300px;"" />
              </div>","null",""
"","","","","","html-keyboard-response","6","186627","0.0-6.0","94F2C1CE6DA4482182A6BF3EB20E310B","9c9ebb88-af97-47ed-b624-2d9085486a74","7c9f784d-5202-4c36-a6e2-1fcf7bf41701","","null","<div style=""display: flex; justify-content: center; align-items: center;"">
                <img src=""images/causal/causal_series_18/causal_series_18_b.jpg"" style=""width: 300px; height: 300px;"" />
              </div>","null",""
"","","","","","html-keyboard-response","7","189644","0.0-7.0","94F2C1CE6DA4482182A6BF3EB20E310B","9c9ebb88-af97-47ed-b624-2d9085486a74","7c9f784d-5202-4c36-a6e2-1fcf7bf41701","","null","<div style=""display: flex; justify-content: center; align-items: center;"">
                <img src=""images/causal/causal_series_18/causal_series_18_c.jpg"" style=""width: 300px; height: 300px;"" />
              </div>","null",""
"","","","","","html-button-response","8","194927","0.0-8.0","94F2C1CE6DA4482182A6BF3EB20E310B","9c9ebb88-af97-47ed-b624-2d9085486a74","7c9f784d-5202-4c36-a6e2-1fcf7bf41701","","5281","
    <div style=""display: flex; justify-content: center; align-items: center;"">
      <img src=""images/blue_deck_1.png"" style=""width: 300px; height: 300px; margin-right: 10px;"" />
      <img src=""images/red_deck_2.png"" style=""width: 300px; height: 300px;"" />
    </div>","0","0"
"","","","","","html-keyboard-response","9","197928","0.0-9.0-0.0-0.0","94F2C1CE6DA4482182A6BF3EB20E310B","9c9ebb88-af97-47ed-b624-2d9085486a74","7c9f784d-5202-4c36-a6e2-1fcf7bf41701","","null","<div style=""display: flex; justify-content: center; align-items: center;"">
                <img src=""images/causal/causal_series_18/causal_series_18_d.jpg"" style=""width: 300px; height: 300px;"" />
              </div>","null",""
"","","","","","html-keyboard-response","10","200936","0.0-10.0","94F2C1CE6DA4482182A6BF3EB20E310B","9c9ebb88-af97-47ed-b624-2d9085486a74","7c9f784d-5202-4c36-a6e2-1fcf7bf41701","","null","<div style=""display: flex; justify-content: center; align-items: center;"">
                <img src=""images/other/blank.jpg"" style=""width: 300px; height: 300px;"" />
              </div>","null",""
"","","","","","html-keyboard-response","11","203946","0.0-11.0","94F2C1CE6DA4482182A6BF3EB20E310B","9c9ebb88-af97-47ed-b624-2d9085486a74","7c9f784d-5202-4c36-a6e2-1fcf7bf41701","","null","<div style=""display: flex; justify-content: center; align-items: center;"">
                <img src=""images/causal/causal_series_15/causal_series_15_a.jpg"" style=""width: 300px; height: 300px;"" />
              </div>","null",""
"","","","","","html-keyboard-response","12","206947","0.0-12.0","94F2C1CE6DA4482182A6BF3EB20E310B","9c9ebb88-af97-47ed-b624-2d9085486a74","7c9f784d-5202-4c36-a6e2-1fcf7bf41701","","null","<div style=""display: flex; justify-content: center; align-items: center;"">
                <img src=""images/causal/causal_series_15/causal_series_15_b.jpg"" style=""width: 300px; height: 300px;"" />
              </div>","null",""
"","","","","","html-keyboard-response","13","209956","0.0-13.0","94F2C1CE6DA4482182A6BF3EB20E310B","9c9ebb88-af97-47ed-b624-2d9085486a74","7c9f784d-5202-4c36-a6e2-1fcf7bf41701","","null","<div style=""display: flex; justify-content: center; align-items: center;"">
                <img src=""images/causal/causal_series_15/causal_series_15_c.jpg"" style=""width: 300px; height: 300px;"" />
              </div>","null",""
"","","","","","html-button-response","14","212713","0.0-14.0","94F2C1CE6DA4482182A6BF3EB20E310B","9c9ebb88-af97-47ed-b624-2d9085486a74","7c9f784d-5202-4c36-a6e2-1fcf7bf41701","","2756","
    <div style=""display: flex; justify-content: center; align-items: center;"">
      <img src=""images/blue_deck_1.png"" style=""width: 300px; height: 300px; margin-right: 10px;"" />
      <img src=""images/red_deck_2.png"" style=""width: 300px; height: 300px;"" />
    </div>","0","0"
"","","","","","html-keyboard-response","15","215722","0.0-15.0-0.0-0.0","94F2C1CE6DA4482182A6BF3EB20E310B","9c9ebb88-af97-47ed-b624-2d9085486a74","7c9f784d-5202-4c36-a6e2-1fcf7bf41701","","null","<div style=""display: flex; justify-content: center; align-items: center;"">
                <img src=""images/causal/causal_series_15/causal_series_15_d.jpg"" style=""width: 300px; height: 300px;"" />
              </div>","null",""
"","","","","","html-keyboard-response","16","218738","0.0-16.0","94F2C1CE6DA4482182A6BF3EB20E310B","9c9ebb88-af97-47ed-b624-2d9085486a74","7c9f784d-5202-4c36-a6e2-1fcf7bf41701","","null","<div style=""display: flex; justify-content: center; align-items: center;"">
                <img src=""images/other/blank.jpg"" style=""width: 300px; height: 300px;"" />
              </div>","null",""
"","","","","","html-keyboard-response","17","221744","0.0-17.0","94F2C1CE6DA4482182A6BF3EB20E310B","9c9ebb88-af97-47ed-b624-2d9085486a74","7c9f784d-5202-4c36-a6e2-1fcf7bf41701","","null","<div style=""display: flex; justify-content: center; align-items: center;"">
                <img src=""images/causal/causal_series_12/causal_series_12_a.jpg"" style=""width: 300px; height: 300px;"" />
              </div>","null",""
"","","","","","html-keyboard-response","18","224753","0.0-18.0","94F2C1CE6DA4482182A6BF3EB20E310B","9c9ebb88-af97-47ed-b624-2d9085486a74","7c9f784d-5202-4c36-a6e2-1fcf7bf41701","","null","<div style=""display: flex; justify-content: center; align-items: center;"">
                <img src=""images/causal/causal_series_12/causal_series_12_b.jpg"" style=""width: 300px; height: 300px;"" />
              </div>","null",""
"","","","","","html-keyboard-response","19","227758","0.0-19.0","94F2C1CE6DA4482182A6BF3EB20E310B","9c9ebb88-af97-47ed-b624-2d9085486a74","7c9f784d-5202-4c36-a6e2-1fcf7bf41701","","null","<div style=""display: flex; justify-content: center; align-items: center;"">
                <img src=""images/causal/causal_series_12/causal_series_12_c.jpg"" style=""width: 300px; height: 300px;"" />
              </div>","null",""
"","","","","","html-button-response","20","229841","0.0-20.0","94F2C1CE6DA4482182A6BF3EB20E310B","9c9ebb88-af97-47ed-b624-2d9085486a74","7c9f784d-5202-4c36-a6e2-1fcf7bf41701","","2083","
    <div style=""display: flex; justify-content: center; align-items: center;"">
      <img src=""images/blue_deck_1.png"" style=""width: 300px; height: 300px; margin-right: 10px;"" />
      <img src=""images/red_deck_2.png"" style=""width: 300px; height: 300px;"" />
    </div>","0","0"
"","","","","","html-keyboard-response","21","232846","0.0-21.0-0.0-0.0","94F2C1CE6DA4482182A6BF3EB20E310B","9c9ebb88-af97-47ed-b624-2d9085486a74","7c9f784d-5202-4c36-a6e2-1fcf7bf41701","","null","<div style=""display: flex; justify-content: center; align-items: center;"">
                <img src=""images/causal/causal_series_12/causal_series_12_d.jpg"" style=""width: 300px; height: 300px;"" />
              </div>","null",""
"","","","","","html-keyboard-response","22","235851","0.0-22.0","94F2C1CE6DA4482182A6BF3EB20E310B","9c9ebb88-af97-47ed-b624-2d9085486a74","7c9f784d-5202-4c36-a6e2-1fcf7bf41701","","null","<div style=""display: flex; justify-content: center; align-items: center;"">
                <img src=""images/other/blank.jpg"" style=""width: 300px; height: 300px;"" />
              </div>","null",""
"","","","","","html-keyboard-response","23","238862","0.0-23.0","94F2C1CE6DA4482182A6BF3EB20E310B","9c9ebb88-af97-47ed-b624-2d9085486a74","7c9f784d-5202-4c36-a6e2-1fcf7bf41701","","null","<div style=""display: flex; justify-content: center; align-items: center;"">
                <img src=""images/causal/causal_series_9/causal_series_9_a.jpg"" style=""width: 300px; height: 300px;"" />
              </div>","null",""
"","","","","","html-keyboard-response","24","241867","0.0-24.0","94F2C1CE6DA4482182A6BF3EB20E310B","9c9ebb88-af97-47ed-b624-2d9085486a74","7c9f784d-5202-4c36-a6e2-1fcf7bf41701","","null","<div style=""display: flex; justify-content: center; align-items: center;"">
                <img src=""images/causal/causal_series_9/causal_series_9_b.jpg"" style=""width: 300px; height: 300px;"" />
              </div>","null",""
"","","","","","html-keyboard-response","25","244877","0.0-25.0","94F2C1CE6DA4482182A6BF3EB20E310B","9c9ebb88-af97-47ed-b624-2d9085486a74","7c9f784d-5202-4c36-a6e2-1fcf7bf41701","","null","<div style=""display: flex; justify-content: center; align-items: center;"">
                <img src=""images/causal/causal_series_9/causal_series_9_c.jpg"" style=""width: 300px; height: 300px;"" />
              </div>","null",""
"","","","","","html-button-response","26","249746","0.0-26.0","94F2C1CE6DA4482182A6BF3EB20E310B","9c9ebb88-af97-47ed-b624-2d9085486a74","7c9f784d-5202-4c36-a6e2-1fcf7bf41701","","4868","
    <div style=""display: flex; justify-content: center; align-items: center;"">
      <img src=""images/blue_deck_1.png"" style=""width: 300px; height: 300px; margin-right: 10px;"" />
      <img src=""images/red_deck_2.png"" style=""width: 300px; height: 300px;"" />
    </div>","0","0"
"","","","","","html-keyboard-response","27","252752","0.0-27.0-0.0-0.0","94F2C1CE6DA4482182A6BF3EB20E310B","9c9ebb88-af97-47ed-b624-2d9085486a74","7c9f784d-5202-4c36-a6e2-1fcf7bf41701","","null","<div style=""display: flex; justify-content: center; align-items: center;"">
                <img src=""images/causal/causal_series_9/causal_series_9_d.jpg"" style=""width: 300px; height: 300px;"" />
              </div>","null",""
"","","","","","html-keyboard-response","28","255763","0.0-28.0","94F2C1CE6DA4482182A6BF3EB20E310B","9c9ebb88-af97-47ed-b624-2d9085486a74","7c9f784d-5202-4c36-a6e2-1fcf7bf41701","","null","<div style=""display: flex; justify-content: center; align-items: center;"">
                <img src=""images/other/blank.jpg"" style=""width: 300px; height: 300px;"" />
              </div>","null",""
"","","","","","html-keyboard-response","29","258764","0.0-29.0","94F2C1CE6DA4482182A6BF3EB20E310B","9c9ebb88-af97-47ed-b624-2d9085486a74","7c9f784d-5202-4c36-a6e2-1fcf7bf41701","","null","<div style=""display: flex; justify-content: center; align-items: center;"">
                <img src=""images/causal/causal_series_11/causal_series_11_a.jpg"" style=""width: 300px; height: 300px;"" />
              </div>","null",""
"","","","","","html-keyboard-response","30","261778","0.0-30.0","94F2C1CE6DA4482182A6BF3EB20E310B","9c9ebb88-af97-47ed-b624-2d9085486a74","7c9f784d-5202-4c36-a6e2-1fcf7bf41701","","null","<div style=""display: flex; justify-content: center; align-items: center;"">
                <img src=""images/causal/causal_series_11/causal_series_11_b.jpg"" style=""width: 300px; height: 300px;"" />
              </div>","null",""
"","","","","","html-keyboard-response","31","264791","0.0-31.0","94F2C1CE6DA4482182A6BF3EB20E310B","9c9ebb88-af97-47ed-b624-2d9085486a74","7c9f784d-5202-4c36-a6e2-1fcf7bf41701","","null","<div style=""display: flex; justify-content: center; align-items: center;"">
                <img src=""images/causal/causal_series_11/causal_series_11_c.jpg"" style=""width: 300px; height: 300px;"" />
              </div>","null",""
"","","","","","html-button-response","32","268065","0.0-32.0","94F2C1CE6DA4482182A6BF3EB20E310B","9c9ebb88-af97-47ed-b624-2d9085486a74","7c9f784d-5202-4c36-a6e2-1fcf7bf41701","","3273","
    <div style=""display: flex; justify-content: center; align-items: center;"">
      <img src=""images/blue_deck_1.png"" style=""width: 300px; height: 300px; margin-right: 10px;"" />
      <img src=""images/red_deck_2.png"" style=""width: 300px; height: 300px;"" />
    </div>","1","1"
"","","","","","html-keyboard-response","33","271071","0.0-33.0-1.0-0.0","94F2C1CE6DA4482182A6BF3EB20E310B","9c9ebb88-af97-47ed-b624-2d9085486a74","7c9f784d-5202-4c36-a6e2-1fcf7bf41701","","null","<div style=""display: flex; justify-content: center; align-items: center;"">
                <img src=""images/semantic/semantic_series_10/semantic_series_10_d.jpg"" style=""width: 300px; height: 300px;"" />
              </div>","null",""
"","","","","","html-keyboard-response","34","274078","0.0-34.0","94F2C1CE6DA4482182A6BF3EB20E310B","9c9ebb88-af97-47ed-b624-2d9085486a74","7c9f784d-5202-4c36-a6e2-1fcf7bf41701","","null","<div style=""display: flex; justify-content: center; align-items: center;"">
                <img src=""images/other/blank.jpg"" style=""width: 300px; height: 300px;"" />
              </div>","null",""
"","","","","","html-keyboard-response","35","277086","0.0-35.0","94F2C1CE6DA4482182A6BF3EB20E310B","9c9ebb88-af97-47ed-b624-2d9085486a74","7c9f784d-5202-4c36-a6e2-1fcf7bf41701","","null","<div style=""display: flex; justify-content: center; align-items: center;"">
                <img src=""images/causal/causal_series_14/causal_series_14_a.jpg"" style=""width: 300px; height: 300px;"" />
              </div>","null",""
"","","","","","html-keyboard-response","36","280094","0.0-36.0","94F2C1CE6DA4482182A6BF3EB20E310B","9c9ebb88-af97-47ed-b624-2d9085486a74","7c9f784d-5202-4c36-a6e2-1fcf7bf41701","","null","<div style=""display: flex; justify-content: center; align-items: center;"">
                <img src=""images/causal/causal_series_14/causal_series_14_b.jpg"" style=""width: 300px; height: 300px;"" />
              </div>","null",""
"","","","","","html-keyboard-response","37","283101","0.0-37.0","94F2C1CE6DA4482182A6BF3EB20E310B","9c9ebb88-af97-47ed-b624-2d9085486a74","7c9f784d-5202-4c36-a6e2-1fcf7bf41701","","null","<div style=""display: flex; justify-content: center; align-items: center;"">
                <img src=""images/causal/causal_series_14/causal_series_14_c.jpg"" style=""width: 300px; height: 300px;"" />
              </div>","null",""
"","","","","","html-button-response","38","285568","0.0-38.0","94F2C1CE6DA4482182A6BF3EB20E310B","9c9ebb88-af97-47ed-b624-2d9085486a74","7c9f784d-5202-4c36-a6e2-1fcf7bf41701","","2465","
    <div style=""display: flex; justify-content: center; align-items: center;"">
      <img src=""images/blue_deck_1.png"" style=""width: 300px; height: 300px; margin-right: 10px;"" />
      <img src=""images/red_deck_2.png"" style=""width: 300px; height: 300px;"" />
    </div>","0","0"
"","","","","","html-keyboard-response","39","288575","0.0-39.0-0.0-0.0","94F2C1CE6DA4482182A6BF3EB20E310B","9c9ebb88-af97-47ed-b624-2d9085486a74","7c9f784d-5202-4c36-a6e2-1fcf7bf41701","","null","<div style=""display: flex; justify-content: center; align-items: center;"">
                <img src=""images/causal/causal_series_14/causal_series_14_d.jpg"" style=""width: 300px; height: 300px;"" />
              </div>","null",""
"","","","","","html-keyboard-response","40","291579","0.0-40.0","94F2C1CE6DA4482182A6BF3EB20E310B","9c9ebb88-af97-47ed-b624-2d9085486a74","7c9f784d-5202-4c36-a6e2-1fcf7bf41701","","null","<div style=""display: flex; justify-content: center; align-items: center;"">
                <img src=""images/other/blank.jpg"" style=""width: 300px; height: 300px;"" />
              </div>","null",""
"","","","","","html-keyboard-response","41","294588","0.0-41.0","94F2C1CE6DA4482182A6BF3EB20E310B","9c9ebb88-af97-47ed-b624-2d9085486a74","7c9f784d-5202-4c36-a6e2-1fcf7bf41701","","null","<div style=""display: flex; justify-content: center; align-items: center;"">
                <img src=""images/causal/causal_series_17/causal_series_17_a.jpg"" style=""width: 300px; height: 300px;"" />
              </div>","null",""
"","","","","","html-keyboard-response","42","297591","0.0-42.0","94F2C1CE6DA4482182A6BF3EB20E310B","9c9ebb88-af97-47ed-b624-2d9085486a74","7c9f784d-5202-4c36-a6e2-1fcf7bf41701","","null","<div style=""display: flex; justify-content: center; align-items: center;"">
                <img src=""images/causal/causal_series_17/causal_series_17_b.jpg"" style=""width: 300px; height: 300px;"" />
              </div>","null",""
"","","","","","html-keyboard-response","43","300596","0.0-43.0","94F2C1CE6DA4482182A6BF3EB20E310B","9c9ebb88-af97-47ed-b624-2d9085486a74","7c9f784d-5202-4c36-a6e2-1fcf7bf41701","","null","<div style=""display: flex; justify-content: center; align-items: center;"">
                <img src=""images/causal/causal_series_17/causal_series_17_c.jpg"" style=""width: 300px; height: 300px;"" />
              </div>","null",""
"","","","","","html-button-response","44","301982","0.0-44.0","94F2C1CE6DA4482182A6BF3EB20E310B","9c9ebb88-af97-47ed-b624-2d9085486a74","7c9f784d-5202-4c36-a6e2-1fcf7bf41701","","1385","
    <div style=""display: flex; justify-content: center; align-items: center;"">
      <img src=""images/blue_deck_1.png"" style=""width: 300px; height: 300px; margin-right: 10px;"" />
      <img src=""images/red_deck_2.png"" style=""width: 300px; height: 300px;"" />
    </div>","1","1"
"","","","","","html-keyboard-response","45","304984","0.0-45.0-1.0-0.0","94F2C1CE6DA4482182A6BF3EB20E310B","9c9ebb88-af97-47ed-b624-2d9085486a74","7c9f784d-5202-4c36-a6e2-1fcf7bf41701","","null","<div style=""display: flex; justify-content: center; align-items: center;"">
                <img src=""images/semantic/semantic_series_16/semantic_series_16_d.jpg"" style=""width: 300px; height: 300px;"" />
              </div>","null",""
"","","","","","html-keyboard-response","46","307985","0.0-46.0","94F2C1CE6DA4482182A6BF3EB20E310B","9c9ebb88-af97-47ed-b624-2d9085486a74","7c9f784d-5202-4c36-a6e2-1fcf7bf41701","","null","<div style=""display: flex; justify-content: center; align-items: center;"">
                <img src=""images/other/blank.jpg"" style=""width: 300px; height: 300px;"" />
              </div>","null",""
"","","","","","html-keyboard-response","47","310987","0.0-47.0","94F2C1CE6DA4482182A6BF3EB20E310B","9c9ebb88-af97-47ed-b624-2d9085486a74","7c9f784d-5202-4c36-a6e2-1fcf7bf41701","","null","<div style=""display: flex; justify-content: center; align-items: center;"">
                <img src=""images/causal/causal_series_10/causal_series_10_a.jpg"" style=""width: 300px; height: 300px;"" />
              </div>","null",""
"","","","","","html-keyboard-response","48","313991","0.0-48.0","94F2C1CE6DA4482182A6BF3EB20E310B","9c9ebb88-af97-47ed-b624-2d9085486a74","7c9f784d-5202-4c36-a6e2-1fcf7bf41701","","null","<div style=""display: flex; justify-content: center; align-items: center;"">
                <img src=""images/causal/causal_series_10/causal_series_10_b.jpg"" style=""width: 300px; height: 300px;"" />
              </div>","null",""
"","","","","","html-keyboard-response","49","317005","0.0-49.0","94F2C1CE6DA4482182A6BF3EB20E310B","9c9ebb88-af97-47ed-b624-2d9085486a74","7c9f784d-5202-4c36-a6e2-1fcf7bf41701","","null","<div style=""display: flex; justify-content: center; align-items: center;"">
                <img src=""images/causal/causal_series_10/causal_series_10_c.jpg"" style=""width: 300px; height: 300px;"" />
              </div>","null",""
"","","","","","html-button-response","50","328366","0.0-50.0","94F2C1CE6DA4482182A6BF3EB20E310B","9c9ebb88-af97-47ed-b624-2d9085486a74","7c9f784d-5202-4c36-a6e2-1fcf7bf41701","","11360","
    <div style=""display: flex; justify-content: center; align-items: center;"">
      <img src=""images/blue_deck_1.png"" style=""width: 300px; height: 300px; margin-right: 10px;"" />
      <img src=""images/red_deck_2.png"" style=""width: 300px; height: 300px;"" />
    </div>","0","0"
"","","","","","html-keyboard-response","51","331380","0.0-51.0-0.0-0.0","94F2C1CE6DA4482182A6BF3EB20E310B","9c9ebb88-af97-47ed-b624-2d9085486a74","7c9f784d-5202-4c36-a6e2-1fcf7bf41701","","null","<div style=""display: flex; justify-content: center; align-items: center;"">
                <img src=""images/causal/causal_series_10/causal_series_10_d.jpg"" style=""width: 300px; height: 300px;"" />
              </div>","null",""
"","","","","","html-keyboard-response","52","334384","0.0-52.0","94F2C1CE6DA4482182A6BF3EB20E310B","9c9ebb88-af97-47ed-b624-2d9085486a74","7c9f784d-5202-4c36-a6e2-1fcf7bf41701","","null","<div style=""display: flex; justify-content: center; align-items: center;"">
                <img src=""images/other/blank.jpg"" style=""width: 300px; height: 300px;"" />
              </div>","null",""
"","","","","","html-keyboard-response","53","337391","0.0-53.0","94F2C1CE6DA4482182A6BF3EB20E310B","9c9ebb88-af97-47ed-b624-2d9085486a74","7c9f784d-5202-4c36-a6e2-1fcf7bf41701","","null","<div style=""display: flex; justify-content: center; align-items: center;"">
                <img src=""images/causal/causal_series_5/causal_series_5_a.jpg"" style=""width: 300px; height: 300px;"" />
              </div>","null",""
"","","","","","html-keyboard-response","54","340393","0.0-54.0","94F2C1CE6DA4482182A6BF3EB20E310B","9c9ebb88-af97-47ed-b624-2d9085486a74","7c9f784d-5202-4c36-a6e2-1fcf7bf41701","","null","<div style=""display: flex; justify-content: center; align-items: center;"">
                <img src=""images/causal/causal_series_5/causal_series_5_b.jpg"" style=""width: 300px; height: 300px;"" />
              </div>","null",""
"","","","","","html-keyboard-response","55","343406","0.0-55.0","94F2C1CE6DA4482182A6BF3EB20E310B","9c9ebb88-af97-47ed-b624-2d9085486a74","7c9f784d-5202-4c36-a6e2-1fcf7bf41701","","null","<div style=""display: flex; justify-content: center; align-items: center;"">
                <img src=""images/causal/causal_series_5/causal_series_5_c.jpg"" style=""width: 300px; height: 300px;"" />
              </div>","null",""
"","","","","","html-button-response","56","347281","0.0-56.0","94F2C1CE6DA4482182A6BF3EB20E310B","9c9ebb88-af97-47ed-b624-2d9085486a74","7c9f784d-5202-4c36-a6e2-1fcf7bf41701","","3874","
    <div style=""display: flex; justify-content: center; align-items: center;"">
      <img src=""images/blue_deck_1.png"" style=""width: 300px; height: 300px; margin-right: 10px;"" />
      <img src=""images/red_deck_2.png"" style=""width: 300px; height: 300px;"" />
    </div>","1","1"
"","","","","","html-keyboard-response","57","350286","0.0-57.0-1.0-0.0","94F2C1CE6DA4482182A6BF3EB20E310B","9c9ebb88-af97-47ed-b624-2d9085486a74","7c9f784d-5202-4c36-a6e2-1fcf7bf41701","","null","<div style=""display: flex; justify-content: center; align-items: center;"">
                <img src=""images/semantic/semantic_series_4/semantic_series_4_d.jpg"" style=""width: 300px; height: 300px;"" />
              </div>","null",""
"","","","","","html-keyboard-response","58","353294","0.0-58.0","94F2C1CE6DA4482182A6BF3EB20E310B","9c9ebb88-af97-47ed-b624-2d9085486a74","7c9f784d-5202-4c36-a6e2-1fcf7bf41701","","null","<div style=""display: flex; justify-content: center; align-items: center;"">
                <img src=""images/other/blank.jpg"" style=""width: 300px; height: 300px;"" />
              </div>","null",""
"","","","","","html-keyboard-response","59","356308","0.0-59.0","94F2C1CE6DA4482182A6BF3EB20E310B","9c9ebb88-af97-47ed-b624-2d9085486a74","7c9f784d-5202-4c36-a6e2-1fcf7bf41701","","null","<div style=""display: flex; justify-content: center; align-items: center;"">
                <img src=""images/causal/causal_series_6/causal_series_6_a.jpg"" style=""width: 300px; height: 300px;"" />
              </div>","null",""
"","","","","","html-keyboard-response","60","359310","0.0-60.0","94F2C1CE6DA4482182A6BF3EB20E310B","9c9ebb88-af97-47ed-b624-2d9085486a74","7c9f784d-5202-4c36-a6e2-1fcf7bf41701","","null","<div style=""display: flex; justify-content: center; align-items: center;"">
                <img src=""images/causal/causal_series_6/causal_series_6_b.jpg"" style=""width: 300px; height: 300px;"" />
              </div>","null",""
"","","","","","html-keyboard-response","61","362318","0.0-61.0","94F2C1CE6DA4482182A6BF3EB20E310B","9c9ebb88-af97-47ed-b624-2d9085486a74","7c9f784d-5202-4c36-a6e2-1fcf7bf41701","","null","<div style=""display: flex; justify-content: center; align-items: center;"">
                <img src=""images/causal/causal_series_6/causal_series_6_c.jpg"" style=""width: 300px; height: 300px;"" />
              </div>","null",""
"","","","","","html-button-response","62","364684","0.0-62.0","94F2C1CE6DA4482182A6BF3EB20E310B","9c9ebb88-af97-47ed-b624-2d9085486a74","7c9f784d-5202-4c36-a6e2-1fcf7bf41701","","2365","
    <div style=""display: flex; justify-content: center; align-items: center;"">
      <img src=""images/blue_deck_1.png"" style=""width: 300px; height: 300px; margin-right: 10px;"" />
      <img src=""images/red_deck_2.png"" style=""width: 300px; height: 300px;"" />
    </div>","0","0"
"","","","","","html-keyboard-response","63","367694","0.0-63.0-0.0-0.0","94F2C1CE6DA4482182A6BF3EB20E310B","9c9ebb88-af97-47ed-b624-2d9085486a74","7c9f784d-5202-4c36-a6e2-1fcf7bf41701","","null","<div style=""display: flex; justify-content: center; align-items: center;"">
                <img src=""images/causal/causal_series_6/causal_series_6_d.jpg"" style=""width: 300px; height: 300px;"" />
              </div>","null",""
"","","","","","html-keyboard-response","64","370709","0.0-64.0","94F2C1CE6DA4482182A6BF3EB20E310B","9c9ebb88-af97-47ed-b624-2d9085486a74","7c9f784d-5202-4c36-a6e2-1fcf7bf41701","","null","<div style=""display: flex; justify-content: center; align-items: center;"">
                <img src=""images/other/blank.jpg"" style=""width: 300px; height: 300px;"" />
              </div>","null",""
"","","","","","html-keyboard-response","65","373719","0.0-65.0","94F2C1CE6DA4482182A6BF3EB20E310B","9c9ebb88-af97-47ed-b624-2d9085486a74","7c9f784d-5202-4c36-a6e2-1fcf7bf41701","","null","<div style=""display: flex; justify-content: center; align-items: center;"">
                <img src=""images/causal/causal_series_7/causal_series_7_a.jpg"" style=""width: 300px; height: 300px;"" />
              </div>","null",""
"","","","","","html-keyboard-response","66","376721","0.0-66.0","94F2C1CE6DA4482182A6BF3EB20E310B","9c9ebb88-af97-47ed-b624-2d9085486a74","7c9f784d-5202-4c36-a6e2-1fcf7bf41701","","null","<div style=""display: flex; justify-content: center; align-items: center;"">
                <img src=""images/causal/causal_series_7/causal_series_7_b.jpg"" style=""width: 300px; height: 300px;"" />
              </div>","null",""
"","","","","","html-keyboard-response","67","379734","0.0-67.0","94F2C1CE6DA4482182A6BF3EB20E310B","9c9ebb88-af97-47ed-b624-2d9085486a74","7c9f784d-5202-4c36-a6e2-1fcf7bf41701","","null","<div style=""display: flex; justify-content: center; align-items: center;"">
                <img src=""images/causal/causal_series_7/causal_series_7_c.jpg"" style=""width: 300px; height: 300px;"" />
              </div>","null",""
"","","","","","html-button-response","68","380870","0.0-68.0","94F2C1CE6DA4482182A6BF3EB20E310B","9c9ebb88-af97-47ed-b624-2d9085486a74","7c9f784d-5202-4c36-a6e2-1fcf7bf41701","","1135","
    <div style=""display: flex; justify-content: center; align-items: center;"">
      <img src=""images/blue_deck_1.png"" style=""width: 300px; height: 300px; margin-right: 10px;"" />
      <img src=""images/red_deck_2.png"" style=""width: 300px; height: 300px;"" />
    </div>","0","0"
"","","","","","html-keyboard-response","69","383879","0.0-69.0-0.0-0.0","94F2C1CE6DA4482182A6BF3EB20E310B","9c9ebb88-af97-47ed-b624-2d9085486a74","7c9f784d-5202-4c36-a6e2-1fcf7bf41701","","null","<div style=""display: flex; justify-content: center; align-items: center;"">
                <img src=""images/causal/causal_series_7/causal_series_7_d.jpg"" style=""width: 300px; height: 300px;"" />
              </div>","null",""
"","","","","","html-keyboard-response","70","386888","0.0-70.0","94F2C1CE6DA4482182A6BF3EB20E310B","9c9ebb88-af97-47ed-b624-2d9085486a74","7c9f784d-5202-4c36-a6e2-1fcf7bf41701","","null","<div style=""display: flex; justify-content: center; align-items: center;"">
                <img src=""images/other/blank.jpg"" style=""width: 300px; height: 300px;"" />
              </div>","null",""
"","","","","","html-keyboard-response","71","389904","0.0-71.0","94F2C1CE6DA4482182A6BF3EB20E310B","9c9ebb88-af97-47ed-b624-2d9085486a74","7c9f784d-5202-4c36-a6e2-1fcf7bf41701","","null","<div style=""display: flex; justify-content: center; align-items: center;"">
                <img src=""images/causal/causal_series_4/causal_series_4_a.jpg"" style=""width: 300px; height: 300px;"" />
              </div>","null",""
"","","","","","html-keyboard-response","72","392905","0.0-72.0","94F2C1CE6DA4482182A6BF3EB20E310B","9c9ebb88-af97-47ed-b624-2d9085486a74","7c9f784d-5202-4c36-a6e2-1fcf7bf41701","","null","<div style=""display: flex; justify-content: center; align-items: center;"">
                <img src=""images/causal/causal_series_4/causal_series_4_b.jpg"" style=""width: 300px; height: 300px;"" />
              </div>","null",""
"","","","","","html-keyboard-response","73","395915","0.0-73.0","94F2C1CE6DA4482182A6BF3EB20E310B","9c9ebb88-af97-47ed-b624-2d9085486a74","7c9f784d-5202-4c36-a6e2-1fcf7bf41701","","null","<div style=""display: flex; justify-content: center; align-items: center;"">
                <img src=""images/causal/causal_series_4/causal_series_4_c.jpg"" style=""width: 300px; height: 300px;"" />
              </div>","null",""
"","","","","","html-button-response","74","397256","0.0-74.0","94F2C1CE6DA4482182A6BF3EB20E310B","9c9ebb88-af97-47ed-b624-2d9085486a74","7c9f784d-5202-4c36-a6e2-1fcf7bf41701","","1340","
    <div style=""display: flex; justify-content: center; align-items: center;"">
      <img src=""images/blue_deck_1.png"" style=""width: 300px; height: 300px; margin-right: 10px;"" />
      <img src=""images/red_deck_2.png"" style=""width: 300px; height: 300px;"" />
    </div>","1","1"
"","","","","","html-keyboard-response","75","400271","0.0-75.0-1.0-0.0","94F2C1CE6DA4482182A6BF3EB20E310B","9c9ebb88-af97-47ed-b624-2d9085486a74","7c9f784d-5202-4c36-a6e2-1fcf7bf41701","","null","<div style=""display: flex; justify-content: center; align-items: center;"">
                <img src=""images/semantic/semantic_series_3/semantic_series_3_d.jpg"" style=""width: 300px; height: 300px;"" />
              </div>","null",""
"","","","","","html-keyboard-response","76","403284","0.0-76.0","94F2C1CE6DA4482182A6BF3EB20E310B","9c9ebb88-af97-47ed-b624-2d9085486a74","7c9f784d-5202-4c36-a6e2-1fcf7bf41701","","null","<div style=""display: flex; justify-content: center; align-items: center;"">
                <img src=""images/other/blank.jpg"" style=""width: 300px; height: 300px;"" />
              </div>","null",""
"","","","","","html-keyboard-response","77","406287","0.0-77.0","94F2C1CE6DA4482182A6BF3EB20E310B","9c9ebb88-af97-47ed-b624-2d9085486a74","7c9f784d-5202-4c36-a6e2-1fcf7bf41701","","null","<div style=""display: flex; justify-content: center; align-items: center;"">
                <img src=""images/causal/causal_series_16/causal_series_16_a.jpg"" style=""width: 300px; height: 300px;"" />
              </div>","null",""
"","","","","","html-keyboard-response","78","409303","0.0-78.0","94F2C1CE6DA4482182A6BF3EB20E310B","9c9ebb88-af97-47ed-b624-2d9085486a74","7c9f784d-5202-4c36-a6e2-1fcf7bf41701","","null","<div style=""display: flex; justify-content: center; align-items: center;"">
                <img src=""images/causal/causal_series_16/causal_series_16_b.jpg"" style=""width: 300px; height: 300px;"" />
              </div>","null",""
"","","","","","html-keyboard-response","79","412306","0.0-79.0","94F2C1CE6DA4482182A6BF3EB20E310B","9c9ebb88-af97-47ed-b624-2d9085486a74","7c9f784d-5202-4c36-a6e2-1fcf7bf41701","","null","<div style=""display: flex; justify-content: center; align-items: center;"">
                <img src=""images/causal/causal_series_16/causal_series_16_c.jpg"" style=""width: 300px; height: 300px;"" />
              </div>","null",""
"","","","","","html-button-response","80","418603","0.0-80.0","94F2C1CE6DA4482182A6BF3EB20E310B","9c9ebb88-af97-47ed-b624-2d9085486a74","7c9f784d-5202-4c36-a6e2-1fcf7bf41701","","6296","
    <div style=""display: flex; justify-content: center; align-items: center;"">
      <img src=""images/blue_deck_1.png"" style=""width: 300px; height: 300px; margin-right: 10px;"" />
      <img src=""images/red_deck_2.png"" style=""width: 300px; height: 300px;"" />
    </div>","0","0"
"","","","","","html-keyboard-response","81","421612","0.0-81.0-0.0-0.0","94F2C1CE6DA4482182A6BF3EB20E310B","9c9ebb88-af97-47ed-b624-2d9085486a74","7c9f784d-5202-4c36-a6e2-1fcf7bf41701","","null","<div style=""display: flex; justify-content: center; align-items: center;"">
                <img src=""images/causal/causal_series_16/causal_series_16_d.jpg"" style=""width: 300px; height: 300px;"" />
              </div>","null",""
"","","","","","html-keyboard-response","82","424622","0.0-82.0","94F2C1CE6DA4482182A6BF3EB20E310B","9c9ebb88-af97-47ed-b624-2d9085486a74","7c9f784d-5202-4c36-a6e2-1fcf7bf41701","","null","<div style=""display: flex; justify-content: center; align-items: center;"">
                <img src=""images/other/blank.jpg"" style=""width: 300px; height: 300px;"" />
              </div>","null",""
"","","","","","html-keyboard-response","83","427628","0.0-83.0","94F2C1CE6DA4482182A6BF3EB20E310B","9c9ebb88-af97-47ed-b624-2d9085486a74","7c9f784d-5202-4c36-a6e2-1fcf7bf41701","","null","<div style=""display: flex; justify-content: center; align-items: center;"">
                <img src=""images/causal/causal_series_8/causal_series_8_a.jpg"" style=""width: 300px; height: 300px;"" />
              </div>","null",""
"","","","","","html-keyboard-response","84","430636","0.0-84.0","94F2C1CE6DA4482182A6BF3EB20E310B","9c9ebb88-af97-47ed-b624-2d9085486a74","7c9f784d-5202-4c36-a6e2-1fcf7bf41701","","null","<div style=""display: flex; justify-content: center; align-items: center;"">
                <img src=""images/causal/causal_series_8/causal_series_8_b.jpg"" style=""width: 300px; height: 300px;"" />
              </div>","null",""
"","","","","","html-keyboard-response","85","433643","0.0-85.0","94F2C1CE6DA4482182A6BF3EB20E310B","9c9ebb88-af97-47ed-b624-2d9085486a74","7c9f784d-5202-4c36-a6e2-1fcf7bf41701","","null","<div style=""display: flex; justify-content: center; align-items: center;"">
                <img src=""images/causal/causal_series_8/causal_series_8_c.jpg"" style=""width: 300px; height: 300px;"" />
              </div>","null",""
"","","","","","html-button-response","86","436019","0.0-86.0","94F2C1CE6DA4482182A6BF3EB20E310B","9c9ebb88-af97-47ed-b624-2d9085486a74","7c9f784d-5202-4c36-a6e2-1fcf7bf41701","","2375","
    <div style=""display: flex; justify-content: center; align-items: center;"">
      <img src=""images/blue_deck_1.png"" style=""width: 300px; height: 300px; margin-right: 10px;"" />
      <img src=""images/red_deck_2.png"" style=""width: 300px; height: 300px;"" />
    </div>","0","0"
"","","","","","html-keyboard-response","87","439036","0.0-87.0-0.0-0.0","94F2C1CE6DA4482182A6BF3EB20E310B","9c9ebb88-af97-47ed-b624-2d9085486a74","7c9f784d-5202-4c36-a6e2-1fcf7bf41701","","null","<div style=""display: flex; justify-content: center; align-items: center;"">
                <img src=""images/causal/causal_series_8/causal_series_8_d.jpg"" style=""width: 300px; height: 300px;"" />
              </div>","null",""
"","","","","","html-keyboard-response","88","442049","0.0-88.0","94F2C1CE6DA4482182A6BF3EB20E310B","9c9ebb88-af97-47ed-b624-2d9085486a74","7c9f784d-5202-4c36-a6e2-1fcf7bf41701","","null","<div style=""display: flex; justify-content: center; align-items: center;"">
                <img src=""images/other/blank.jpg"" style=""width: 300px; height: 300px;"" />
              </div>","null",""
"","","","","","html-keyboard-response","89","445051","0.0-89.0","94F2C1CE6DA4482182A6BF3EB20E310B","9c9ebb88-af97-47ed-b624-2d9085486a74","7c9f784d-5202-4c36-a6e2-1fcf7bf41701","","null","<div style=""display: flex; justify-content: center; align-items: center;"">
                <img src=""images/causal/causal_series_13/causal_series_13_a.jpg"" style=""width: 300px; height: 300px;"" />
              </div>","null",""
"","","","","","html-keyboard-response","90","448055","0.0-90.0","94F2C1CE6DA4482182A6BF3EB20E310B","9c9ebb88-af97-47ed-b624-2d9085486a74","7c9f784d-5202-4c36-a6e2-1fcf7bf41701","","null","<div style=""display: flex; justify-content: center; align-items: center;"">
                <img src=""images/causal/causal_series_13/causal_series_13_b.jpg"" style=""width: 300px; height: 300px;"" />
              </div>","null",""
"","","","","","html-keyboard-response","91","451063","0.0-91.0","94F2C1CE6DA4482182A6BF3EB20E310B","9c9ebb88-af97-47ed-b624-2d9085486a74","7c9f784d-5202-4c36-a6e2-1fcf7bf41701","","null","<div style=""display: flex; justify-content: center; align-items: center;"">
                <img src=""images/causal/causal_series_13/causal_series_13_c.jpg"" style=""width: 300px; height: 300px;"" />
              </div>","null",""
"","","","","","html-button-response","92","452735","0.0-92.0","94F2C1CE6DA4482182A6BF3EB20E310B","9c9ebb88-af97-47ed-b624-2d9085486a74","7c9f784d-5202-4c36-a6e2-1fcf7bf41701","","1671","
    <div style=""display: flex; justify-content: center; align-items: center;"">
      <img src=""images/blue_deck_1.png"" style=""width: 300px; height: 300px; margin-right: 10px;"" />
      <img src=""images/red_deck_2.png"" style=""width: 300px; height: 300px;"" />
    </div>","0","0"
"","","","","","html-keyboard-response","93","455742","0.0-93.0-0.0-0.0","94F2C1CE6DA4482182A6BF3EB20E310B","9c9ebb88-af97-47ed-b624-2d9085486a74","7c9f784d-5202-4c36-a6e2-1fcf7bf41701","","null","<div style=""display: flex; justify-content: center; align-items: center;"">
                <img src=""images/causal/causal_series_13/causal_series_13_d.jpg"" style=""width: 300px; height: 300px;"" />
              </div>","null",""
"","","","","","html-keyboard-response","94","458754","0.0-94.0","94F2C1CE6DA4482182A6BF3EB20E310B","9c9ebb88-af97-47ed-b624-2d9085486a74","7c9f784d-5202-4c36-a6e2-1fcf7bf41701","","null","<div style=""display: flex; justify-content: center; align-items: center;"">
                <img src=""images/other/blank.jpg"" style=""width: 300px; height: 300px;"" />
              </div>","null",""
"","","","","","html-keyboard-response","95","461758","0.0-95.0","94F2C1CE6DA4482182A6BF3EB20E310B","9c9ebb88-af97-47ed-b624-2d9085486a74","7c9f784d-5202-4c36-a6e2-1fcf7bf41701","","null","<div style=""display: flex; justify-content: center; align-items: center;"">
                <img src=""images/causal/causal_series_2/causal_series_2_a.jpg"" style=""width: 300px; height: 300px;"" />
              </div>","null",""
"","","","","","html-keyboard-response","96","464766","0.0-96.0","94F2C1CE6DA4482182A6BF3EB20E310B","9c9ebb88-af97-47ed-b624-2d9085486a74","7c9f784d-5202-4c36-a6e2-1fcf7bf41701","","null","<div style=""display: flex; justify-content: center; align-items: center;"">
                <img src=""images/causal/causal_series_2/causal_series_2_b.jpg"" style=""width: 300px; height: 300px;"" />
              </div>","null",""
"","","","","","html-keyboard-response","97","467774","0.0-97.0","94F2C1CE6DA4482182A6BF3EB20E310B","9c9ebb88-af97-47ed-b624-2d9085486a74","7c9f784d-5202-4c36-a6e2-1fcf7bf41701","","null","<div style=""display: flex; justify-content: center; align-items: center;"">
                <img src=""images/causal/causal_series_2/causal_series_2_c.jpg"" style=""width: 300px; height: 300px;"" />
              </div>","null",""
"","","","","","html-button-response","98","469914","0.0-98.0","94F2C1CE6DA4482182A6BF3EB20E310B","9c9ebb88-af97-47ed-b624-2d9085486a74","7c9f784d-5202-4c36-a6e2-1fcf7bf41701","","2139","
    <div style=""display: flex; justify-content: center; align-items: center;"">
      <img src=""images/blue_deck_1.png"" style=""width: 300px; height: 300px; margin-right: 10px;"" />
      <img src=""images/red_deck_2.png"" style=""width: 300px; height: 300px;"" />
    </div>","1","1"
"","","","","","html-keyboard-response","99","472924","0.0-99.0-1.0-0.0","94F2C1CE6DA4482182A6BF3EB20E310B","9c9ebb88-af97-47ed-b624-2d9085486a74","7c9f784d-5202-4c36-a6e2-1fcf7bf41701","","null","<div style=""display: flex; justify-content: center; align-items: center;"">
                <img src=""images/semantic/semantic_series_1/semantic_series_1_d.jpg"" style=""width: 300px; height: 300px;"" />
              </div>","null",""
"","","","","","html-keyboard-response","100","475927","0.0-100.0","94F2C1CE6DA4482182A6BF3EB20E310B","9c9ebb88-af97-47ed-b624-2d9085486a74","7c9f784d-5202-4c36-a6e2-1fcf7bf41701","","null","<div style=""display: flex; justify-content: center; align-items: center;"">
                <img src=""images/other/blank.jpg"" style=""width: 300px; height: 300px;"" />
              </div>","null",""
"","","","","","html-keyboard-response","101","478931","0.0-101.0","94F2C1CE6DA4482182A6BF3EB20E310B","9c9ebb88-af97-47ed-b624-2d9085486a74","7c9f784d-5202-4c36-a6e2-1fcf7bf41701","","null","<div style=""display: flex; justify-content: center; align-items: center;"">
                <img src=""images/causal/causal_series_1/causal_series_1_a.jpg"" style=""width: 300px; height: 300px;"" />
              </div>","null",""
"","","","","","html-keyboard-response","102","481946","0.0-102.0","94F2C1CE6DA4482182A6BF3EB20E310B","9c9ebb88-af97-47ed-b624-2d9085486a74","7c9f784d-5202-4c36-a6e2-1fcf7bf41701","","null","<div style=""display: flex; justify-content: center; align-items: center;"">
                <img src=""images/causal/causal_series_1/causal_series_1_b.jpg"" style=""width: 300px; height: 300px;"" />
              </div>","null",""
"","","","","","html-keyboard-response","103","484957","0.0-103.0","94F2C1CE6DA4482182A6BF3EB20E310B","9c9ebb88-af97-47ed-b624-2d9085486a74","7c9f784d-5202-4c36-a6e2-1fcf7bf41701","","null","<div style=""display: flex; justify-content: center; align-items: center;"">
                <img src=""images/causal/causal_series_1/causal_series_1_c.jpg"" style=""width: 300px; height: 300px;"" />
              </div>","null",""
"","","","","","html-button-response","104","486657","0.0-104.0","94F2C1CE6DA4482182A6BF3EB20E310B","9c9ebb88-af97-47ed-b624-2d9085486a74","7c9f784d-5202-4c36-a6e2-1fcf7bf41701","","1699","
    <div style=""display: flex; justify-content: center; align-items: center;"">
      <img src=""images/blue_deck_1.png"" style=""width: 300px; height: 300px; margin-right: 10px;"" />
      <img src=""images/red_deck_2.png"" style=""width: 300px; height: 300px;"" />
    </div>","0","0"
"","","","","","html-keyboard-response","105","489661","0.0-105.0-0.0-0.0","94F2C1CE6DA4482182A6BF3EB20E310B","9c9ebb88-af97-47ed-b624-2d9085486a74","7c9f784d-5202-4c36-a6e2-1fcf7bf41701","","null","<div style=""display: flex; justify-content: center; align-items: center;"">
                <img src=""images/causal/causal_series_1/causal_series_1_d.jpg"" style=""width: 300px; height: 300px;"" />
              </div>","null",""
"","","","","","html-keyboard-response","106","492664","0.0-106.0","94F2C1CE6DA4482182A6BF3EB20E310B","9c9ebb88-af97-47ed-b624-2d9085486a74","7c9f784d-5202-4c36-a6e2-1fcf7bf41701","","null","<div style=""display: flex; justify-content: center; align-items: center;"">
                <img src=""images/other/blank.jpg"" style=""width: 300px; height: 300px;"" />
              </div>","null",""
"","","","","","html-keyboard-response","107","495669","0.0-107.0","94F2C1CE6DA4482182A6BF3EB20E310B","9c9ebb88-af97-47ed-b624-2d9085486a74","7c9f784d-5202-4c36-a6e2-1fcf7bf41701","","null","<div style=""display: flex; justify-content: center; align-items: center;"">
                <img src=""images/causal/causal_series_3/causal_series_3_a.jpg"" style=""width: 300px; height: 300px;"" />
              </div>","null",""
"","","","","","html-keyboard-response","108","498674","0.0-108.0","94F2C1CE6DA4482182A6BF3EB20E310B","9c9ebb88-af97-47ed-b624-2d9085486a74","7c9f784d-5202-4c36-a6e2-1fcf7bf41701","","null","<div style=""display: flex; justify-content: center; align-items: center;"">
                <img src=""images/causal/causal_series_3/causal_series_3_b.jpg"" style=""width: 300px; height: 300px;"" />
              </div>","null",""
"","","","","","html-keyboard-response","109","501677","0.0-109.0","94F2C1CE6DA4482182A6BF3EB20E310B","9c9ebb88-af97-47ed-b624-2d9085486a74","7c9f784d-5202-4c36-a6e2-1fcf7bf41701","","null","<div style=""display: flex; justify-content: center; align-items: center;"">
                <img src=""images/causal/causal_series_3/causal_series_3_c.jpg"" style=""width: 300px; height: 300px;"" />
              </div>","null",""
"","","","","","html-button-response","110","504460","0.0-110.0","94F2C1CE6DA4482182A6BF3EB20E310B","9c9ebb88-af97-47ed-b624-2d9085486a74","7c9f784d-5202-4c36-a6e2-1fcf7bf41701","","2782","
    <div style=""display: flex; justify-content: center; align-items: center;"">
      <img src=""images/blue_deck_1.png"" style=""width: 300px; height: 300px; margin-right: 10px;"" />
      <img src=""images/red_deck_2.png"" style=""width: 300px; height: 300px;"" />
    </div>","0","0"
"","","","","","html-keyboard-response","111","507472","0.0-111.0-0.0-0.0","94F2C1CE6DA4482182A6BF3EB20E310B","9c9ebb88-af97-47ed-b624-2d9085486a74","7c9f784d-5202-4c36-a6e2-1fcf7bf41701","","null","<div style=""display: flex; justify-content: center; align-items: center;"">
                <img src=""images/causal/causal_series_3/causal_series_3_d.jpg"" style=""width: 300px; height: 300px;"" />
              </div>","null",""
"","","","","","html-keyboard-response","112","510484","0.0-112.0","94F2C1CE6DA4482182A6BF3EB20E310B","9c9ebb88-af97-47ed-b624-2d9085486a74","7c9f784d-5202-4c36-a6e2-1fcf7bf41701","","null","<div style=""display: flex; justify-content: center; align-items: center;"">
                <img src=""images/other/blank.jpg"" style=""width: 300px; height: 300px;"" />
              </div>","null",""
"","","","","","survey-text","113","543281","0.0-113.0","94F2C1CE6DA4482182A6BF3EB20E310B","9c9ebb88-af97-47ed-b624-2d9085486a74","7c9f784d-5202-4c36-a6e2-1fcf7bf41701","","32793","","{""Q0"":""one talks on positive actions and the other on negative actions""}",""
"","","","","","survey-text","114","556064","0.0-114.0","94F2C1CE6DA4482182A6BF3EB20E310B","9c9ebb88-af97-47ed-b624-2d9085486a74","7c9f784d-5202-4c36-a6e2-1fcf7bf41701","","12782","","{""Q0"":""Deck 1""}",""
"","","","","","html-button-response","115","570069","0.0-115.0","94F2C1CE6DA4482182A6BF3EB20E310B","9c9ebb88-af97-47ed-b624-2d9085486a74","7c9f784d-5202-4c36-a6e2-1fcf7bf41701","","14004","Which color deck does the fourth image continue the story from the series?","0",""
"","","","","","html-button-response","116","577356","0.0-116.0","94F2C1CE6DA4482182A6BF3EB20E310B","9c9ebb88-af97-47ed-b624-2d9085486a74","7c9f784d-5202-4c36-a6e2-1fcf7bf41701","","7287","Which color deck does the fourth image not follow the story from the series?","1",""
"","","","","","survey-text","117","586636","0.0-117.0","94F2C1CE6DA4482182A6BF3EB20E310B","9c9ebb88-af97-47ed-b624-2d9085486a74","7c9f784d-5202-4c36-a6e2-1fcf7bf41701","","9277","","{""Q0"":""MALE"",""Q1"":""24""}",""
"","","","","","instructions","118","595173","0.0-118.0","94F2C1CE6DA4482182A6BF3EB20E310B","9c9ebb88-af97-47ed-b624-2d9085486a74","7c9f784d-5202-4c36-a6e2-1fcf7bf41701","[{""page_index"":0,""viewing_time"":8536}]","8536","","",""
