success,timeout,failed_images,failed_audio,failed_video,trial_type,trial_index,time_elapsed,internal_node_id,subject,audio_id,rt,device_id,view_history,stimulus,response,estimated_stimulus_onset
TRUE,FALSE,[],[],[],preload,0,2381,0.0-0.0,sxfr6kywgcut4ky,sxfr6kywgcut4ky-2024-02-15-23-04-21,,,,,,
TRUE,,,,,fullscreen,1,5493,0.0-1.0,sxfr6kywgcut4ky,sxfr6kywgcut4ky-2024-02-15-23-04-21,2107,,,,,
,,,,,initialize-microphone,2,12741,0.0-2.0,sxfr6kywgcut4ky,sxfr6kywgcut4ky-2024-02-15-23-04-21,,5d583505a2859d6fbb6386d17ae5e5eb08fbb8f09541424df61d123d8304a05d,,,,
,,,,,instructions,3,20230,0.0-3.0,sxfr6kywgcut4ky,sxfr6kywgcut4ky-2024-02-15-23-04-21,7488,,"[{""page_index"":0,""viewing_time"":1801},{""page_index"":1,""viewing_time"":5687}]",,,
,,,,,image-button-response,4,24738,0.0-4.0-0.0,sxfr6kywgcut4ky,sxfr6kywgcut4ky-2024-02-15-23-04-21,null,,,images/schemes/movie_scheme/movie_1.png,null,
,,,,,image-button-response,5,27446,0.0-4.0-1.0,sxfr6kywgcut4ky,sxfr6kywgcut4ky-2024-02-15-23-04-21,null,,,images/schemes/movie_scheme/movie_1.png,null,
,,,,,image-button-response,6,29265,0.0-4.0-2.0,sxfr6kywgcut4ky,sxfr6kywgcut4ky-2024-02-15-23-04-21,null,,,[],null,
,,,,,image-button-response,7,33773,0.0-4.0-0.1,sxfr6kywgcut4ky,sxfr6kywgcut4ky-2024-02-15-23-04-21,null,,,images/schemes/movie_scheme/movie_2.png,null,
,,,,,image-button-response,8,34825,0.0-4.0-1.1,sxfr6kywgcut4ky,sxfr6kywgcut4ky-2024-02-15-23-04-21,1049,,,images/schemes/movie_scheme/movie_2.png,0,
,,,,,image-button-response,9,36633,0.0-4.0-2.1,sxfr6kywgcut4ky,sxfr6kywgcut4ky-2024-02-15-23-04-21,null,,,[],null,
,,,,,image-button-response,10,41142,0.0-4.0-0.2,sxfr6kywgcut4ky,sxfr6kywgcut4ky-2024-02-15-23-04-21,null,,,images/schemes/movie_scheme/movie_3.png,null,
,,,,,image-button-response,11,42394,0.0-4.0-1.2,sxfr6kywgcut4ky,sxfr6kywgcut4ky-2024-02-15-23-04-21,1249,,,images/schemes/movie_scheme/movie_3.png,0,
,,,,,image-button-response,12,44209,0.0-4.0-2.2,sxfr6kywgcut4ky,sxfr6kywgcut4ky-2024-02-15-23-04-21,null,,,[],null,
,,,,,image-button-response,13,48713,0.0-4.0-0.3,sxfr6kywgcut4ky,sxfr6kywgcut4ky-2024-02-15-23-04-21,null,,,images/schemes/movie_scheme/movie_4.png,null,
,,,,,image-button-response,14,49686,0.0-4.0-1.3,sxfr6kywgcut4ky,sxfr6kywgcut4ky-2024-02-15-23-04-21,972,,,images/schemes/movie_scheme/movie_4.png,0,
,,,,,image-button-response,15,51491,0.0-4.0-2.3,sxfr6kywgcut4ky,sxfr6kywgcut4ky-2024-02-15-23-04-21,null,,,[],null,
,,,,,instructions,16,58198,0.0-5.0,sxfr6kywgcut4ky,sxfr6kywgcut4ky-2024-02-15-23-04-21,6707,,"[{""page_index"":0,""viewing_time"":5576},{""page_index"":1,""viewing_time"":1131}]",,,
,,,,,html-audio-response,17,89216,0.0-6.0,sxfr6kywgcut4ky,sxfr6kywgcut4ky-2024-02-15-23-04-21,12880,,,"<span style=""color: red; font-size: 24px""> NOW RECORDING</span>
        <p>Please say out loud the list of the actions you saw. The actions can be said in any order.</p>",GkXfo59ChoEBQveBAULygQRC84EIQoKEd2VibUKHgQRChYECGFOAZwH/////////FUmpZpkq17GDD0JATYCGQ2hyb21lV0GGQ2hyb21lFlSua7+uvdeBAXPFh1Dn+r0C/EyDgQKGhkFfT1BVU2Oik09wdXNIZWFkAQEAAIC7AAAAAADhjbWERzuAAJ+BAWJkgSAfQ7Z1Af/////////ngQCjRCqBAACA+4P9N/8JcnfHIKvD+9KwASa6SAw5SKpsFtXsnT14R2Us9HPcDNEql8wwb8fris3NW5RhPtk7UnJCXuHapIWrRJ015FPfH9gagNj8SO3OPRPz8HDKkGH0tRXWuljT3UGA0qHkJ46qBC5Uw+QyPCht8O/2J7LEoWKjTyPueAN6cXd8WxdCbPYZYBOkFnIghpiUagm0eRPwCEppsKt3bAKK3NqhLHnP6H8gLlVvwGDYu+MwzI7Q46K3dtrk+XFSsZiUQnfN3D8mQIAWkPnaPWHpmTu9h44h5UcABTCHDOM/mgAAAAAAAAABgo7gp80K9Z24ENQ+V2tSZxHZdIkWlnTweVUmmlhQ5AyPFvZtdWBgU0Oraj0L7LoUeITaZ6/yIIwNH1pGDsutMVMn9bZ7HCG/9euMK2ko+3ib8H47uU/TfKq3IB3pDpKHh8PXwO+zD+favgE2qiSQdSAPgh/zonMCd11CYv8WazrMdiAf1fxiwWQMyAf84osfb3OONisAu5bf+L8WFkO151KhIkpKIDQxq32PuDk6zZ1wD+/N/RAqkwSuEczb1mK2naGxknyKLppuBs770M0UdaV2vr6WW2Q2ffQYbmFnmBrRYhq5JEuAsQG5RHT2WwrAEJJXiZlU2i4SHI58CaR8s7k2C3lxea514mYPhVIc5mzceSECZ90JVugE/qsXLT4bPuoF3rEv+kTsg1XQYdCELTLaLQiwY+03gLYG3aNZQDjZNEQ4oImFii5QCKoQtQg7Ktc6Yxn/sde9+e4586bDD06iXCloqD95N+PuLF+Y1/jk44+h4IeJK8HyFpuEiOs6xg+G0m+9pa/dVYbAQXHWK9/LjvXWoFUFuOUaLxYSmd38P6wJEjW0R6oEQ4j/7PlHYiBEzmRqDQvw5N2AIUkRIgEGK4Ka53e7eJhk2mNQUY1Ze4hECWwTLSbSSQXO206+mpO7iD7Pqz696CZf33pCwNke9PaNuOM6GBJeKmogQY36q2c6a2R/QGWDakWautcOpEq0IQ7dm0TAeC4VB+uXzIBFpvFkAA1KfFzW29K5KZEsh7L6FUzCtp2beacxCN9U1vn4r8iVv6+bRjH76+Usy9NLZLaztO3YmOmbZatW/3YXlKMzBh0yxuC0RMDx9cC+UJVScCJgTKm6hILsXVUpAS4WNrU9JDfBgNATrxywYCtIqlq7SUzDSehxk7quAxKnJKwLlP88eEQ2BZKB30CWPv3QhwApZcGgg5N2htCMBzsHGqFsVuD2QbhjWy1RZFFOEoyKJN7vLkWM1WTdUfVH8LfBeT7+3QkH5wrU0sOb1h8Mh+pDrPhw+c/u8aZv0nmH9Smx2UBXzFS4GG2kn6ERokosAWxStgtT2hKDBp2o8mvFGU/6veNVyNjb2WT0zO5HlqEJc9df8FC+RxYKU7fKo0N8gQA8gPuD/Qr9CmczpzAoWbekOsry8n+CWJW1IdOCDb7kpfLz8YqgxqxhQbyh2OZ4VmZAOPIEDfxBInNkv5URKhbNs9laWzCGjXKIn6o3mpxkZMJK8uuRedEg4wAL2BtTgA1AVMEsTFW/KxOxbyQXEfFZhU7t8bRzxi2F54OxYv4YLsgT14ncftfy6NXpzg60ZLOTy6FDamvJhGr5vjyNRcJAlV1tCKnfYXAoxDkVVb/w+TwQzQQgkyZacYqTYN06vpzAs+uXRwgIqKZjGslmwLuks49qQ8ylZDDfRuvUtydBKdRHEi6grcZnIW1Cuppe01kBB17BZdgTqKbPR/T1xbsC1bqw4sfIV2NkrMlrBH0xNu0L5g3QT8CQfFVuJy1Um6kezJ9mww6EWBDhVvKrEtGuRJtu0QF7dBYGeXXjya9YMdhh1wdQJbLVUULXgmRJk4szkaRJnu+T+PXIEa/o0fInVHfG9A42vRefpIrWSV3zE3ygVjUB/ynzJTsxqCOfE45pCmYFvSCUbcJgwALpQpqqAKzjS6z+JqOaJMG2dz+wsigQfcg8rRmhe5dUO34qVxzPPFJS08uJNyYcT2uBgXqSPtQV+nduF233CDwCCWTCcWTQFFyoqzSB42EJ+zc5PFDAv4o7bQzQ/mZEAJHYJkS4axZAmgdngYewVapAt00UVjg0DKRjn9sm9NkBH4Y6UGkHQtiqYtDeDrPRkDRIo652BFqH/dW22gtegBuT+w+RWKLyC/KyCX8/NEtp2sViN8Yw+nIanxmox/uWnt60nrMbb7oUzhK3rrLNEa7LOFnfPJ/rO08qEvzkJ4MMTo6aZGstJqv5uMg2qvzFlqOOlXppXO7HKqsxRu0FGKT0dJ5IbqlrQacZzAPX4/JOcNJgU15qPrM2t4iDwCQMmhmdFTjIFT2W6kdioq7ZQKo4bHLhpQPx7cNe96DbeZtX0ZsFUo1W55RD1VLkY48ymNDQnkHdcq+196Ua82wz0Uz8BuOSKhBOBf1UblLINY5bhSCP6U4gTr1w9rDfemdmoEeYsr0mIBTcsFDBziwkfTBIGH/VNlAhpr+FO19oWJAYZcg1WzbN0vq8t9A0dp2eX0R8iZAqNHCCr7lxE+yCYkR2+xbSUsqFuy5Edksr2MIb9CnwE7OwMx0xOt0j+oZs5tFA2Y32kx9A8PwUi09fpKNDuIEAeID7g/4M/BFnJUtMd9iB4+aDQmEaSFdfk0obpMYuLkA8PTckO4FHAV3L/3b0fK1blEKt7Lt2zwEbDefGf6CPAzdr9lSVwLaHkARDsS3CB3KLdJmdGSiey6uN0BzmApWHhVJCHZVk1TZToJmf+nFdaOekzQB8JbDjU7mouLVz9q+Hq/KqngAIzaeVThK5jhizjTuWzgo4ojvsd+sKjxgyzlbnydhXAYBp0FcNmRFnMm1yDng56YwpHMAcuT5kqItcrESAxZ6jZN1C121p23BJ0fWen/7YRpzBl2rcFFOFogXXEMu2O0nX1rRutH3X3UWyVencdQl6jE/xSEfNrZWpp7HHb9c0ZWU8gWxKOHZ4QRag9qeDhHKSEZJWxgvSzbkRngoaBsdDgrpPjqq+dEg7Fn9ijNRgUxQyQAvuKhtKPlDMuuuYjHOrcKQXncWnHc4GD1qajE5t80g3AalwDLS/ECvZY8sFOgW3AxZSjoa/cKseSfLU3ukyUCPgIVxgG3mflSAHjPDbYeqjLMTti138p+cddvt+YxONunXNql8UCmdAtKbSIOXXIwGOsA+bC8hS4HX4DM8CY2182lxAOxeaZcpgWRAWeTirJLJmnuqrPcK2lQG49+GDpKTfRG1YUsnreoi496LbxHh2XsCba8jClzvEpKrOmyJq/WJzz5sBz1GIubIW37L/8SUkHlpk+8y7+wATFBnxsVAdsQI7adHh4XvjlvyENMuAApVJ9zxk46Curnye8wgyy/OpitZ635KV6rud/LB8E6vd3i6yrZ54I7lVCawQriCS2r/4QJS3y6R+0FU7G2AwWq+bRsirgjEiATI447o7EBS7T4Q9R7QvEgNLoqRzEAoTKNV7d2ZexG8ZcQVbQClOiTaZCcWpVUB2ukWftcifTgGM/+AMc70YIlEWNoyKzioewcrMqqSJJryZ1voU0uw1XOpWK7se8XR8CL2AJ8hXI8/8Sd6BXX+rFXCXX1mifuTxNmu8Ql3EV/Bttx2ITv6CLTj+L6hEeTQ6JsE08J5orRmyEoi9mxjfJ/+xzMP+LzzTHPzGZXsEbGF8EV2SN8npMsP3YaWLQkjJqxIf0Qziq1ziMsJu6GhUeJPlTjFYEQAXoqir/QP5JtfIPEr3MqROy2xE6M6uq3doMwIibHTSZJnnJguJxVm05aJeliuacc/gQWFF6Mz4jxLJzH891pszL/ScEwO4XxbsX7oDoz3xvecSa5mg2eJVp9Dnh/+n6qYQbSBFUCpiJC4irEz3xxajRGaBALSA+4P8Ef9AFCqvD3spfcQ3ccxxAaHYEeg3/zUVcXeO0GyjeUE2fukWztgL8EhHvbFupPn3nZSnxengXUPM72Ix95eOwXyR+mX6nE6+mX1He4T1BiU7CNqeBW+e7LINROm+un62hmI50ign5XTKDofVxJVbAIuG4EHUwAL78QNwE7z+Q1SQSvLpz5B2uOKJLUOuvl49w3Iz1hkVoKopyzF+eR9/61VYLIk/wNr27P+LUCFMW/Psbp6yH0004jjvoATToBnlvLB5rwPLHdLz/+eJUpzqoUTQu79nX1AEmuRh0h/O1EtRONrbymtaVbx/jUDe62YmkCsBYPvhdaVHO6vFnPWtl/Q6cYQpR1HEocswU1M5qr9tIKUCY2A+edOOOzi1eQJzjT4vDpW8pPceBBynr1OPiyLCyZx93L3FSS1UdjQ0slrKmCpxdWBDuQonoOlpNKfrd7rsbtDJEXFDFyQ0JA6sehGMwxcd95yJqkwbrpBDkwYpgu9uu5J//YHxKysTi1pySszi6lvNOvMOlp6hERuZHXWsQJhVUJJdS8/TKMPCDG5Fy0Y0qdPSS8xDGUV1LeEUkqBH/cZbXgSTXJsb2IfX660Zm0/OETLp07sA+VdOW1yw0rjVUSd1qWPlp4dhz++mLN3CDcUJFWb/dMx5r/fiTb1EHj17TALu5RtUvNhUozKWurLQALkXtf8JJje3va5oQI1HEaKAVb3Z3efYEQ3fv5gKc5wT5g8QpwSSVkH7sSzbw39YjfZeMvjiPaGHib5/ZeXI5UCXVkwNMQBFl9MUNToHnIuRT8J6oZjw6hv3ZJBpRoktS062Wv6VFCCXgNETvAv4A+5TcRnAiljQGnKNkmDHRwVrHONvWKCU7TAQoomTX2j22l6gb7K5/1/qVCbsINIXZyzMzmNsXrfcC7afbO6MRnTtkPiYr3Q159vYTCodB2AfJUR3+vvtDyGs8yW2O9bsU+iulxjUJRS/YYTn1ZdaoVAi0fcHqxZ9ey3QH+pQb3gUNP7vzEPJdHbFi7qpgI/iOJtMWfGdTBe4lvLO9Ureks0dxcbp83NfpzdvRjidAWXy0NAOhIwCQUC7tKgjq90yhPYIMcib+jSQmDfI0BAPUpsMCDOOJTyX813ZgL/SdXaoSJ2prtNaVNam96qB6N8dYrLb1GjLH2Ztj2EArcVGO9dVc5HORFrqXuyRNOwBMErrpZilV/gDmKCGiv8VxYgY4KBTcvwPnkWgdzdF4kg/9hos9UEmCaIEU5saQnBA/eNOvZsbyvCnWtrV7KkcjB3/bVqoCloIZRBj34uOBgN8BYesyGgn5Cs/UeEVTpGmm4Vq9uRMYe/eMD3QG0+OEVEVgnQHudJ7K0+9384Cbbi1UdYEoNyCrIXamR4b8WwgmQOOQ1rljKO6tsxsIBaLkpXaK2haDiMdTSt77W7iCvOBfcU+dnsvqHXm1XHH97S8gmgu8sBjsYE0zrpKIgTQ8iSsTCYyNjwAcGU4xdsso0QigQDwgPuD/Dr+BXBBil+euIq32Uwl/89dlbvo4Ah2r7uuy0FylyCJLQhbQ/TsSRbaReI/4XfQWDIUtU26BzwD5LCxXpM4ICYC4hV34B7quzcAJcNOxTuqv8HLmx+cBzedACSdXf/GWVyKy4LBZFV9q/1qKiddJhueB99hNTL3BqxGYOdJ/0ipHLg1IX7W8vRSmWYHjVwa5vG4ygwJSTKGvLhO2IGrdNa/AKjSigmotw9XoGcCSoqd/1gKhqtGqHuoOaIhmnHGg8FUnqmqiyaJ+TDRyjY9Whw5e6f8+Jf29gigKxIPuo8oBqGoa/JArJYPuqVM0Wr+U7g6GPGQMEjgwPQUxeJBPkel0/e3CC/UOV3JzedYI64BP7DIcJqCI/9UxmX3dZ4acO/vDBRAC3G44UOX2I0pJlbkZ+fLBA8lVNrW4ufIw01GDAsmODDG3T5X42zj6E0yVjkbbrVOV3uqTGx6M18s1PccXZkDeRCUYZFHS1ZrHZ7lzEE0vuBmOP18wb6UO9KpFeIixPC8ZnorESLpSb+/HajY2bt0gQLzyKW2/Pd/tVvEIKoIb65HyZAqqKpQ+CQRK9rYrJyucaYJKG+YbUFXVbdtNLgOIJUVx4d8ewYHCjNVKCxHDTpYnhUTRchrpM+sM+85lIYzGqg7gMCNJ/Wxgf1mFz8adocSvam3E7HDP6NVLtIKg2NPa7RK/cjFLqJ7k5PRU5WRbaPXKxJcIAZTvkcSY+nY+JwlAeIlPSvy1+InW0FK0bT+6eX9tZpl4BY0U2nQN1ElPiLXIv8egwDHuXPWOi6baEb9MGgr9kiv1am6QohUa+G2K9HS+t8Zht3kUsBkyr/PB+vLSV1drHeordHkDyuD/95COHvOe8kICmdbhXNPRrptzRdXdkFFMui1zUSQexloi9kNEe+SMLrKmWDbsmBJXFqj6vxjUuu9Zq68T9ayyU1hEgLFb8wVXcfjgK/UKqY4C48uRZszensQFu94hQa91NadrpQmsA5VYx9q+QxLn+8SEEovFCHHnXgvRDCKwJLg/dQZO7UtpzZ7tnaIq3W/UvhwWpwY/BAu3204IWJL1HM9ZSa2+M90JfEzKbf5KmGeIvDj1qqqQZi0FR2uSYw6UYtCg8SjYPL7mD8n5RsnglpdvQQ4pTiXTJaReX/y47pY8ETGEEof8L+rQAr0KpEP8w/8XqB5tXG4t8AMjW7/3YOoWQ6Rj/NowpDf8vUMhj6jn9SCayMVVKItPVLk74otl9XYs81PEDaO36PYl5kjx3ytMxP/5RWUqOxvjYHn6fZJ+h2e6lBDaLO5/nBVddyxLLeW3PyMFja8AEiKfyQoVGIXeyGkdJDD4W1f/NMdbV8eh1io9/gojYlkWxmrvZ4K3LR/x/nXD2N/tlCtFXhFvvQrzjDuiqKjQ2yBASyA+4P+CfwJGfZJRe+Rhl0uWmo+yBwPX4cCgk2tIjo1b3NeGkA+tDCPFfFIxWvYhv+uBNb75bJnouX3guY6EMGrrQ0TCtWES7yd5F1GVwGO4DoH8GupADh8vqitA7gur95Cxa0YV+ZA6oBCw8XeEM/JD2C2fFbqYHsQzFnhbrp/3BmxSDZ0ia30xK0Y3XOw+nx9HlD3xVS6Ws63LeclKzKgsE5j/P4AbMVJjx1FGRhOsYzZ0z9mc4YIQRr4uaubC6N2Pl3NKXsWQpVe1d+5qLp7XJ1UhtDT9i2BIIQmWXNo+wZfyyoRCSwKobKIdIIZzI+1lp+UoOHKMqF+pzn40JrhnzqJyLDJoZ9GNG3UJRQHmWZW93fclhO8gWIVYmB/pFWPHYsna4XINOgQdfWOqUG/KZ4Ll98DD2vznze6QTjguiM8a7dhVGHhbRnvhqOMkwrh/72qTIuBLlzgS7tHO1vtS+69H5wRu+b2Dg4Qqs3QtYCiZZpbR2UK1LLjdkP0Kag3Yb7B9cYgyz1MOzg0P8MJrV/HlB0Bc1l6jaeh48dXKbb8cnCLd54O5VrhxpE+sSke20YSSlWd4j+48qBgEJuiZyfxVGqDYmTL8zMlhfb4dzwt+2dqR7HzzSVxcobwgRAeNyMTbmCsY5q8YXFy0eCY+ZWATgD7NA47wmDC5MPyVZreEemI43zg4+qJBzgHu34q2zGj/li14jE3QIsYs3kCkiRNeZHdQVeOK9e+eVxzAUYHujzNn6/j3NwaTwNKhyYgH8TfsLHebYcU1LQ9owJaVoNSPps/nQwyX7KGPAzHve1RTr7m56xJIQ6znghcmOsAuA05ewXfjHbcmcfMM0pR1/7MRUQUlB17JfKm2s9Yg68vvPKeG3be1+CFatX6fQyA8e5h/VfUP35v2S8ksvPbGkhM6OORVnMJBLqtUe4E/0fsO7yLnMobU3x6tEsYNuJt6Yu4p9D+LraSGxcL9VjPsXPOXrbAEGhQ7xzGRC/GiNU5kOcNSdKaF/sIvHeQlxIvOziwJBLiZEEmNNzSq7wayTqCo2s8smebmsw2VY2cpu+X8y1AWCd8ZzEmQRn88M0NeuVkHtpC3ugAynfg24WMCr4nRkqYU7EEhSIjnAvU6aqk5y2c3WprXL6lqmb/xrhtMIADiAH1v5yjRDeBAWiA+4P+Cf0KH2jE4DVC0kTS4gPuF5p/VYRTI+QmOQ/uM/E6mTG99kWjRDFdupFFYEjdDgpIbxU+Kignc/S5WbS6RXvamHhPwAvuHkotT+RrpjlgA52dp74MOMI9Du1aw3c77wXXrlvyuRE/njSW7rikMlGQFy5voUIkPgcTvNTRMS3En4XoVA1N7/vuOAXtDUmRYf4Tzr9FegMLEpspjaCUhTtxh2h2OlZeAss09I/WIr9rHK4VS1UhnmlJ2MQbHUmuVig/nYMxgFVj4WtMgt1nlS2k5qCepweww+ASJvojEGXgIRkZ8HIDE6tdUTIe2tHJd0rU7urgQ4kiy8H5rnsLE7KAGO/VbdOfABGMEWHTp1ntWHcQNrKA/KcTxK4caFp+vR0Zbcf8GYEcP1Rw15sPanoli7nVCNz1ePDJA4kckeJeP0DSWqvzL2QON77NnK3YQmvGhsCZKctZFLh9G7z232WWqIwC+1rFzaVLI4HI2DMGXXx/8FqRcRO14Hyn2ZgLNMcfgDR1CoPZy7d2oSPUEDG8LPR5wXe4+T6rgYFlV0aMJL90N2c4bPx4EoBzJigRdAOX9DflGzceuQI57SFkvKxJJbs+59yMPKfckTvn7isq+XZUpm4yqWOgNtONxsrBnhyz4qffsCSWfNwlrVtGaaW2BqhuQTpiskcD+g8Bo6EvJ5t9OoICaywNEOa6WFMe2wDOHkQ7tKy4GuOIG2RM6SEfwoaLaM5oxxJ8j5b0IXCtuZzMLxmIJbQP5TVKVqjDCigTb7yfyYQ1lW2aEHXH3QROjVLhjsrrQd17Pb2QfmMAZP7zOkzwNPXZUTJgBhyCqhI6iBViIVgJxXLLi1unr2OGhSNpUuJirAO+PBFvt9l8mDlw5trKMMLkvnfN8pSaQ18FcLNsU4/l/2XGKn8trpNXP7djenhrSN2TmcqVtve1JUC/BsgfKSmn7J7S4q8Kfy99C1ocyDxbtFMYVkoz4Y48M5c8eYUd5vrEMpc9rMCM1cgH1O9TioHaWn2/TLfE2/htcha4HuXwbH7frNu+c1tVFNu5GGntlXzZbfNo3fovcXzN4iwc1HVf0faHwjJ8myphNkUkVy9Qgys+k+N96uq150olKMyAuOezgnF8DSMfp16cIFp2/0jqkrmsBfEMMBRqCIilydDTpAtNtagzo9fGwYMQRu1ryNhpM24Gsa0w9r6QKyQi8PiP+LNfvgOJ3xX2i9a22u4CrrZnW4FINWISyTy74MAJn9tm5lOuz+PDcT2NynyATUSgEYK3gGp2IYROVzqb/QQVwMvkFafAj3vC+ozUc2S9NOWAift0TA3JgD0TJbJ2GZuj/0hBWnszG6fhD9lZ4qDMBz0IiRxG/lPBTBeA4OTdtVkc5MhqjGBBgaZr1fBkFRVFFVWUhnYEeFy4DSKz9Qy3KK1HxGbVCx49oKNDdoEBo4D7g/8J/AoYLCUVMJ/6NoNxJIkbkcOuIlL3yp1NOV6g+VBzYQKF3X2IpDYytSYZ9T3qL0KwdEERM+mNAbto+7dcyO/dqmgLbZ+ATHu9oiAPWlweRhNZoT4nnHaJqL/v8AjV4k13XUbVGvc4c7ixxsJc5InI/j1+PNwUmYQ8N+7AgAHpr6fbwh8iEDRMK52yL1Yc74qViT7bQtyDIAHbfpXJXDgKsuw3gm+3DHZtVqjiXz635lyAEpq5XQ2knwHbUp0MGd6/smDsOn1Dpk/znldALOgU/BSVWpQRReg1Z4Fl3WOgCh3I/NlFFM3mtjGsidnbUiKNsWE3LXar+WTiTrHR5NvQutFmBsnix0rIvNLlSe2q7nYKNFdHQgBt6PAZCx+Ztx87brdroLE9zD8UxudcXOa1Uo4W5NCGbRgxQRr+Vgdl6h6zZR1UvMBMZikEcMJpySWg9KhUDnk3D+Y8AJ/jFIRcLUbdJoofp9AOEBmZxaVdGJeJoNUj9TbO7AbqkPHQjOSC5ugjwGMrpb79kGCbKCrg8EOwMrqK40GHPHyLxHcWpoo69kIKVVHGq3EAB1P5qV4W5KyO/+PNJAr2CdjjG22CMRk4Ummu2SZYbYoPzdhLZJTMA4cb5jCrHMGs4+3EMacXPz17tXr+DDyJdq/d1OKyyPGf3LN/PJuAbXlwvo2DD1Agi+6vttZ3myoFkzGP8AKwZ0GFNOEBsM6v6W5K7/FEmJmNUNeL+Ygu0MeEKfuGTrkN3kwuzI1vL5Dy2NW+i0uMqrDMI4ugGVq+EeRoprs/C1dmTB58RjKorF3MO/IEYL1k8C3cqZequRc4gEXWSbPwEM9zfdJFZv9Uvuhux6rtMnoWSZutCyM6Kuh0JkmTKvDBigmCW0HySPFqRwsva2aEG0kVo7W9OMTkILopuJDXJAkpc82Ytq6uiax0NsT6AuF4Z5zq5ShYScPUSBIkGHTpjq24LCY3I1kn6ipNM2XihuGrPboviPpr+CNpZsozqlWQ/A2y+TQoeB6hC9h1HW4MuwlNHfHL7Oo7S1up3jkyzb2UWG1ZcaBqdlEuvdwUy5kUYfeuUYyCNwQxqYapOdVAc/iE1zKbNkHpShu6gMKtogfz32fJcOWAg1IGzXjOsIIWF7eMDUxC0VAvIVixRqluz+j2omyfAoYcK8agHcSjQ3OBAeCA+4P9Cf0KGgAgvRkG/zzAZPatlWW5j0gzV91hCZvSCaJHnnhgFlfy8Gq/di3rTg9TLGgoUuFBNoIkH4uvudMlm0OosK9EVQ6PBy4VdAmiyYSk3WQEgW//PQH/QQMWLqUoEoV609lWxvHgo2kXYuqSW6GttgWHpvtmZbZwOkQ0qNzaffz/HMCBK0bqok6P8ZM9ghcSvPAl58eDKiS6J8W7/CBnClyQyfZnIxsQLf4wPSZGlTT+prOLIEedcdNS3CZ9ZZPcZb9VIUdHyVV/Hv3CKsOpKd4vAHeq2UHZSgZP62U56QMNORI+QYJ9IVv9i0VICZv2f8g0YOJ1XYeJoJuLbWTrY5LEnZ+2nfBs/FzkaS+l232Zv9IaWokqj+J09JlrCitEi3Jd1xnHirPxGIRVvbn6exb/SkT2jHe1m6/Q73ml6DcOc0V6IiT5XuOf1gptTlNGdZfFdavsO/qPPL530zhnTAU3YAE98ofY1BCNqB8LL8x/hKBKgAGhXMu3jLC6grMquy7h2XVD9dc9XSYBVPP1uKmXNyDPCgChcd7DS3G/qmiga3038FCU+KhUKCB0+ekOpSY/q1OTXCCS1e7xNiumn/EbolEZv+4JfHcmRAaqwU7r2lc/pCSNwfEdeUrI+4EA+U0WFR5SPKl+fambAVQWdhFc5FKmQMhanOff2Iqvncv2hx8xCY8B8Wf/Y5z2DkEOFZvNOogIZO8Lj/pe8suN30SuhWO40OQIw0F+Ha5AYWkn433/G4Ey0X1VxpbFcxUu0zkscXZWCcvyPhfTGG57FC3cPjjvT4mCWQUUhTfvwFe62Xf59KKYj8e4dO4XjBg3fBxZwA7UeK3SsWFGltz+NuxlFrZyEvU9iWJWTYR7985/DE5BKLWDdYJv4tFoFsbhtzS+oD399a2SSdLV5ZYDnv0uncXtaSEo4OKTpKkXPISuC0PquL68/ZwNN9/gRSsiF1ZAo8zXfdBkNNCX7LmZ+GLxNHyzq/kGduEOwkTcQpTISaiWbU85yKwNZbqhM4AhqTIKK3Tuu/s/BudDo+lokNwRKM3+KSfLgeX/Bqdv4JswrrJQVaOvyLJPUbuCOJvGuNQd1NRaxnrRzLHgdvgkNpw5oxy+rGxu2P1TfOD6m6El7gakvCEox4LWp9qSWLQD9MtklNVAXCLQ7Hbvo0N+gQIbgPuD/wn9Cxm+ZeDtXaVEXtOTU2i26PXG4a7D8Btcaz6h+nrr4V8pn9v7P1R6dEG7p2oTokV+nPgJ1sDfYIAHPaVmyhJuB6X4zGBr2uPIETueSoGwoIkleTysH/cj6as1k9QvJYU2/HhBhWR5g1s90UDW2mi12scWgXdGPAZbA5Dqc7wd++zi/vZ05RcgCXNX7uHY4AJjW8bUvJE48tC9c6LExfEjN59pNGoA52GrLbn5v6n/jUiwljFAu7xCkdvS0MxJJj3W6Ukxvc5kU1vncKu54HTfX9nf7nFbyIhdIc+XP6tt7vcBjWiqQdJxqgMb6bL9vvSqtp/Cnsb/PocPPkktYaI9KKffzMhsJXPS0yPFGp1zjh6m/1WhBWohXMFfHsNktDFEVnUlympFxc5x+1qBgSRDDYZ74YjG6Ll+tG2VfKW0SRgOSfJaRli1ZyFe8ciWDUqUma+DLwmQIYEiqDNeO2TW1I4LsJIZUsxTtDDvyOA1DcT/Qnpx3Fdkza8fQGd/1BQDZZgpenZfnt53CYE9nXlApLq3KICse90Yz+omG/mzCvaq9zHjrh8x3MesbpMMnv5siyUAENQi/kHr6tlESMi+IFodd0lgib1c4zDtiXX2jLqsdWD8DbHRohjeiOw86zj8XgnVNBD7UGqVrZw5Ftg7x7IWKAzG9kPCie7z2/ff5uhEHHbctPWyOQlja6H9s/NZGPdaAZn722B9YVWdqz/XDQA/wSgET5tFBlev5Gmxh4wdveqL9QvKfA0fukmTl2kDB8CDOOCvngxIv0qkjxw4PL5g0AVw3IWWpdK7b0hNOfwFGUGIXTaTl9Dm1QxYqqmLzupGb+ukdIFZIDNFmCebMeN3GsOC23byo4K1pX6Sp79BLaLnHM2Axs+oQEBoL0X20gZVE4OlvqRsMhkq1tgnFiyTrL04NNtWiC+saKqyFR/vHGRuRIIiHiQMUuN1qdgjgpxaGCzKXoH2DELnxOEW0OtINnQ3+wKrm08s9RIZuoawUmF+b++qYgGOVJzhWNr8uWh1quOBV9A1U1vYB3/HQYllA/iRWzWk/VJ2z2rVW87eZiD/LclSIfiJLWRDVE3syPD3P0OcE/2Hejv7mEalefP6yf1hbZ+OOB23e7GfvL/1Fbf8b1KtHsDCQgzBHEnKcaELU3/6LRjtJEf5T7uEdRohPer7o0O+gQJYgPuD/A78ERPHoEczVt9CUAZYFM3o4yaEQD8CMZbDS/VQeYjYzv1v/0hFxk652GsCZuk5d9szfeDl2P8BesYp3dup4oPrwP8dvEZWwqFT+EuVDGHssulYDWtQhpwMiV3NPMBlQmHkGNGC7IgceostiLpndujR8RS85hynrvkMQ9kM+mtXH0G3els7L7BfKjU6Y3intXtX6UzIZpq7wXFhthUoBy7VIw/KrOHfhDJLANIo3sn4p30lLJ6CgkATne/rrSMhGhS3x+LdR+ycowvDZS8EIJVtaCpWZ6+Y2XZ+jf+rhhB4iydRSx+F237ejzf0NKeeG6ud0PU9SwI0HMrFaVqzBNWuOvy47uhgMAS7OHveeSuqtr5MNljjVufBFgZmO09CXtyKvr8Zp8fwviwiBgLDg90IxqDHVoswFOHk3dLKky0uKaCI7oItVpQvC8Ai3ZzMTVXDw/MMxIY8bgKETtt5h0qmmBIK4Uhwnsdfh7+xC92ZIlpQecYHQxUi99JTZyB7MqhKHh3Q0+ZJNROhEQMnnL5ZjJUMNUCaAFDiOmrobBOWkRjCPM5uGPz+E5VAOSiVRf91/nakDzV8IffrYP9vtn+m7UudccrLnmFKB0Mlj3qr2oQinkuR7cG1XaA0BktLOx1I24ZJbBoMiaVrXpH/cMifaWHmXXSwB7AAht3umtxfDSC+yXkdUI4XaECoaPWZbnIW0ZPETVenCIVaVZqR35hh6VGpYka2kkgz1aR9lMgosFfvUcMoLbukLZlHARBNHxmI1YPciPGSUpnnWC9/VMyfU05WRiLis/UymbskeGOPrLIo2L8+VTnmVTsS5q1gETAgFzQfWMoU5clMaJ1I3nNaoAA72gFoHESX2zzuqK3N3i8z71A2/qbl3mFJKm3qEEW8W9TatHFlbBVIKg1MsFRomjH7BmETxeM8+uiEf81YD+yHosYM3egXAQK88T1boDoHWC5y199w5wV+8IZhtuZAeSPGFCL3c981c9bcyWaoUoBkz1cg3gV47u552fl2N5Xi+v8YHw0drsOffOn4QcwpaY7W4Ux5WUtiJcq9MTFgA4Q/BfmxPjQDI9WukM2i/EP6tNIZ0f5Lto58uwcZAVResQHltjPMdLowSuQUDmpTKnpKo/+T3l41orfY53O7kokPfgy3qIjx6CTjDpgfa7vQT1cdalmFmwkj1Kt0Ym0nePt9A3IFYQlOhsWL6NUUCCLm2o+GYeCD+42TN8qJ/7GVg8eqw3HxQjnsKdszrC//MyaIUyYuPqNDxoEClID7AxAUoyDeZ1PTjyz48L4UmSpw+uxZ7/Ryta/sF+FCZYvZWYe5C/kzJJUWYZW8UP7gIBpS73gxghZjqQgKefXIhoWjBARKVfX623G73Oh1sPGWaDBaqdL82AYmRI0Ox9C9Cyb6oek7BFT5vLbbQfKpNGg+Isp5SRDBSct3aIiP9Xo63fndjXdbAquc5PwP/mfwoeXiIEstBOFrbnbjecyCNZnEOVblzM6yVzPH/yJh64I/Wtac5U3xK5ugwsXoDSNGXXmIzy9+T8Cyt6J9Gd6Sh+SgWiktYWUdI5gw9x8zf/xjAAvvDp16w+HmrcBwAaJBRckrsynJJmUjqel8KIRx47DuviBRWdnmgK578cvPArqSWeE/rQJayelIxQMz4fUxTZca6v9buFF8uhZuZdbsElbs5Sdx6eWqLd6vcFVkTIr2EIMuIkQn+RfMZSpfTdD8khhF2r41Q9T94u2huJv7QL3eG83yYQTRQ867s73RwXCwKaHlJsm/UwNWGItFXIwb0c6st2tHqscyV4y914FWEIt5FMVWMupXGSOC172hTbiI4EEO15+2ZpcnKq9CvoDIe5+Kq7kX0EeSqmX+8c6b2Q8MOkiQgtDcoYRQeBF+p+vQf+jlU6GRYORanDjpp8vTdp9P+10CSn5nPvO96o/m99KZcR2SIBoFM9PXG2iu2EP1gfw7Ee7S8pv4LNQ+VSUF8KCkJAsH9VNXqIDbNgsUwc3ahXtwXL/cYl/dYMtz+QWIqD+6M9kUA5spvZN8yQFUbPgNVC/o5pdPUAMHUceZKXxPu8YbxPwafTJceZ/8REhTTXXfErGVcAYHEEPPOs9WnXCydHRRGxyFGD4cCu9lSjc8lIlnaqkpFnH+kaSrOfiiB2kjpYMdO4MOBWv2pBNX7sct5Kh2uEDZcwqea6BXqXrfs1MkMDWStj98ufXOydmGEk7wdg9tkLxQBOq4Fs4z0w6h0jayrikMo7TQhMq6ggZ4jI0CI94af7NhfqucIxvtBTNamM8UYsqprsvq6ZNLrtcOx25JerXF9JCKU5rZ9F66qURq2b5eP+wa93eLIShTF0/rh1J2vi5XW0F5JQqTERKJ2JUoSc4oJshmzazwc/GDycgqdAtGYRnZpkTgtJ37Wb5mIcsuDY7JaQdcSUz7pifTDzSJGP0bGT8TeprAUSR/j4cMec+2XXGMjhbt0x5ltNlsawUiGGGfcANVrs1kXy0g7aYhkc58jqMtEx8R3Z0vkfAdQOtTIbHXZcITU6ym+dRamMg8vi8A8FBtqb8xvKNDxoECz4D7AwZllGIwpcZLheJZuFaROKyFGX5Z6dDjICl8TvymLeD6E8EEjLofWxmI0DECCa5kX25FK8TlFBDVZAXFds66mzPAy7T+ai6k0c9T+ebjVum/bcD/wznuTHEXPxk8pWc6gN4DO9m/zj5IleWi3Rv5enEo7JSPHnUsTtZSHpWneyWdgLJvZ+nW/lw46x8jiIF7jGmkcO/afQaqrQUdOUzepehK1xOjLrYfz2n9bD37YDtgq/57aDT76wfQsO7HkNzvufYyJQ/uHUWA73rv4nrBwhAyueZ79PbSYHYEnN0Ua7ipTC29IuvCh0B5pCQ1ZMzip50ywNy2vM6S2YuK+epyJnJfnNOOx+Jfg6Sawxid1vuknf78jBOgtfBREYAZFFNEYloN9yOvApnqYEMtegHhdF/ghTE+5rS9T/EgI7vZ/pNgEBdnlBNVIvI4sRT+VXwtQbDjk9QiR6CSk+iqYmi5tD+OtssY/25EBmGBmnjKLRXWX3rsueKqe1V5UQZP1iHrPxJxU6o1ZqescGJ/SWvLIL8YJH5pZkFaR3s08lv8r/9ijHE9MWVAKmZHqBRBnZWBsyiHBX61mA4RtEYIHqvlqAJn2HX+Ln2KPLNqsJsE0Ke3J4OH5b62t1PtQAegGc8jv0GZvPoNaSvEGaydra84Dv00MKjNu9FamIMlT21YmaycLb01TAcPAm1JRGilyrgPXSYN/LiVCcBCy3X57jb0mj1vv2+8fIZuGOpDrjfddtY6EM4MMm8LKs6zhFzvC9YFIhid17QgvQKXGK4ugSd8M3ClEmiGaK+RStXG/+60dnqBz5K7mtP3wwNQ1QRDkzbZfEea867u+lGGVCBB7z5FNVlCz0fW83pWVBgwbbmZ83AmRxHCiQ+SITFdopMbhrwTydMmqluqI3I5bzM/aOPlSyVrFCRTGIZuW1g0L53pL4sapQwNcjXW4I8PSGOl/mYZi+sdOJRpmWysOmQOHFl2B2TyMZhNHZCipZpC88vca7V77B3UcSz69q9tODcq4DRa/eHVzhY5EqWp1JHc+oxcfRFUiMdO7MeZb9gBnCcfDnhNczHcp3XcrSEX8oR0TChYoyAOzMmzNHp8XyyA+BjBwDAT+9wxmPGeI76FB+/TvbQEWU6IkwxghbRPR3vfZ5r62/G/0xQAHxRomoYpy1aCNlWPzGCfb12qGbO7DC2oakgHrA50EMSvntEgdLyL+8vgyoaGnCV9/S44ezDD6IRpWXvXn64iepTIDutV0WlnuziPLkI+T+qi4tQueSSbol4qVqNDxoEDDID7AxmX9oY0LIt44qXKFhhseQtvc1e/gTB+7a5Vp8PETx8pSC/KKrxflVRHEabRUH8MOzuuGoClrivKl0itoZLC7Cu4pmrEAJb1IwpHQoZvvdn55YUReWW582FdXjx/yyJSqsUx3ngB7VLZZgIbCPkBGM6MMdt1UU8pr84mo4S9D0aHjRmDiVbXcrXBj/X9yvTGSOprgfxh5ZnHDQ7hDBaaWBdJB8Gokse5un+kK9DtGtK0121Wpe4ewiQL1ZRSp3tB6DyFwoOCLD2I+pXNa6YsxRfb7dtg8KEGQzyGCCPGay/nPGB/Osg0hEorKN3ewfVUZRilRAHJ5REUVVq5uA5WMvWReF6FRiYBUb9HYsmrIO6Qy/A6xuGjmbqmsWoI52wtUFDR6SkziYmhpYJZkpQXmNzRe4rGffPRsRZCH1w0a57rE8Rv2SL818KfWHcHhdsuhmZwSU4lxZikXzIrcIxPImYDQZlV3+X9gYrkji65ApQjFu8A8gsB46u9/9smm9EC+AQFlxDAFN04YtNUDWS5CaohrhqVISbE4Hr4tELFrpMYC3hPo8vBLB1NFrUOueqvR36yCkhc/6OkxSwxu/nh4L+EeKI85qBhTpocZre7rCd4fgU8y4MD0fpHgLVF8vD14ZGr949Ep40gYoSNjlcvEwEDcZreDZn1zhtd9iQDEm0+cFn1lf8TROdYfKwcJd4TZv7n9c0rGH88l6PBr4HkpXMAeViWSzjXBtePMKdvftoKajLxBTD7/FEB9AE6gb+tolrDvc9kdRkdg8jghw0BMnMhR+ced64tRUXlBRRyxqojDtcH98+Pk8iXg7H5aknA46Wea+MDNd8FoBgNCXMpcrMbescotMv4rndYqy82hLUpImzX35tde/0fwWSlt8o14B+AKjLLzjPeG3+H0omy8FlbY+97QA/vENEI3oIY4FRcIiNDTXbfXmiwr2yvh/V0UxmeBgcQya2YN+8k418Mw4G2chc9iev68YIQ75FKLEIkBag5aE+tsH7XaqClKv0Zz9sMPQxBsFnBRgrzbUyjhX6VJxIskN/F9rcWa/3L6B/XJv9jkTo2IJH/9YwFcUSqWHWWxYY8QUHLAcyXVXPhqsCr1CGdNTai0bXbBf0GEqzFyjIhFzcKV8HmWBHa7LD8rciLB0ceiNIUwYogB/trt2t3vQv3BXrlzggTqxtdBTFklwGzqMhzvJwd4nv8z0HWer3mj1yxcM6xDmOcw1mahtfpGOPj/aJSf3Lt6Nb2hkINfAqprnly6o4rNQiBueTt86NDxoEDSID7AxEN7Ll7f44YwbdOGS8dp0pvhhDTW0p4139JZOof8BX1ev2uEJ/NtIO3a+FvuTT7YmTVXHrCC8ZvmhHZFMapNcCTlCErEKrLZPT+uHTQiZm9ek5ZruNMps3I3IMKYO0cef3PV/BrrOg6R/fRr2shxdl5Gj63KYGUxT5n8u01TJtyuZj/D8sq6XOFpd4sydP97G/jFZHowz2vYMqKhVYltaUNdcQlAJpSdqJMix8H1tjdxypx1dcQvV9YuWc0Ve/8v3LbNbXiBH5L6Arm0JP41QcBZr1j3atwChJKsh60jzGXSHCCFkeiKln0PDqcf44D18dvoyhsOwGyzg3QEpzjAtPZc7zYCTeAz3fGXEstb9uq31CmaRXz5/hFRo1q5lPdY+ITcQiQCgr2JSnKys9v/J+FfWshfo3PxrhzWUE0Cr8JEDxCy3+HSbDnVl7Ol07iQC+UlU2q5JYTvtUaW2WSPhPqUXwOa5A6KM3mAHCYo0MYjyPsw3YXWQRaLiuDTZQ8pGRciSdqJBqLpmTqV7QsfxNLKlT+Z/pfqAIaLtM1fh+qCtK+MNqkiVtigyPtS4hMLvZxfh4EkD2ls8hWfq0+c+g/CUqcDz/M0clO8tBS4DQCms8/rmMooKWuLtv0XlzJo2Gu9mNivImSvgFGi3t9DwmXnMHgTu539L+1d4MFeCWQMNcDp1MPNTe1Y+1d1OPlDXvHPdv6LyUxgkserKjSvPD0iObR0Tx3LBMlq4QvP49Bzi2ssSZyZrekWXdYhLe5Rcd89AvtoqiJg0+TGlatGEAidNHPORBdH3ahGuBt/xrIf7lpHYHi9TKFq9IZD4XW25t9FWYWImORz6qhub5lNS0UE0aOwSeqoLQrk5koplIpWqX+OCyJLdxOiJBFhj8wR+17TTeBflzkV7gLnT1tCi0ZQJoJ+wD/gC3j6AlyDCqbMWOUXyTImbxHt+uwsRk2SytIIXPNqAD2pRZhlwmb6IcUf8IIXrlVqdK0fwFw9QQX6VB59ZN9JggBexowWa54WCcxb0uFgqMqqjSETMsOGnf27qNeaf5VzjkrGlf0XQniWD0hiawOYuWXuolLQqIIaM6th7G7WhPGE1jEmfA0n51FAeY3eeO62bdYGAuVnaWnn3pS4cG+Dq6DQsTy887BTack5pLTqufQQs5e3J/Uvr37M16yUZ0nhrVh/sBV/QhUWNYJ6SM6bbufUpycxkkgqjVoIKjLpm2zLCxpeo46PF9zlr6eLIc3QFsBbKRTZJJqNDSRDDxhj04RUYOEp3UVAKNDxoEDhID7AxUWK910+1gMB4u7Qb5//uuYWBWD7rLGwobauLnJvbdiM/Ou6k36YQ8+nWAH8QFpixKb/sssSvl33y5AeZ5GV+5zwgyQFDKwKfBdsd3CFmlN80W7E5obPyJOaVz/SG2ClSyULc4MDl+kxCXGVZmG3xtgjQ9HoptW/vLUfIbWBJLXtrSUQzp1mb1JZy0NM1+F2YNmGOyDUqhlMTFmZ+A1lV/wJ1l0dfsXUiJamSt9IbGGhXN0+BYItANiRb8dheWiKJfCOjuXyYOQD5w4b+1Tx0AGTjG0SJ2C7uPsNA0kEnL/FthN/DyCbIEcaaeVLucePivVxzuORohtO125SyoA6IJjPaeG6hrrda2j+UVDvuI0JFJIQGOIMt83N56KNDp8AxSCpIJOsdxM0So/GxtGu2YLz0lx3unG/xlBjAKnmOKDQg7SdgLvN9/33aA1f2NRcQn7U4jZGF4xLwtUSpWM8Eg59aSPhZGtMspwmK/Qn+oz4WvYP71U4IYGxP0cm6Y9xSBXnu8GQjne72fe2luDW+xtzE7ATXdfxul3AYr836X1Qsd6+fzBfo/YzOWhOBhV4e9EIFOMJgzg/ZEKy2CUTLpZl06mnoi1ltDKl1Tk2qblc36FXRkbuk/2HOdTBiker6merJC8IhV4O2sXdg6ie0i5X0t0PHKKeueC2CLwGjeMvaDLrJ1Q91To1GHQYAIqiNB5n8tuIMuWhywc3hVEtu25/JApeOAdBBgnvLQBgjeNgK2JGaN7IiJQa41nSKfbVzxq+SPKP9A4/OQALrchsyWTzMG6moQmXcyxPfBz+uTFlJnnjeNP0sQzP4+Mzia5h1E3hYlKl6cJO5S5wp+MvP4RSNxvB2BDTAxfLHc9tV1cjh/tnvyeR6/8Bno3rh/CYF66AzqPdg0h5qmJpYKpxyMhI0hypbKSZcwm5N6QrxXQpl2VZ0Gg+1dRBHuBlzquQwR3ZZRw/2krJVejf30/U5gpuQT7LUup0i1Lq8JSdwV+nxhckA8xbgDt56q+tDvwALaWtJhlhVS8Zok1YCgoU7B1XSn72H/zy5SAwKvOiucPUox1fauPghheS+6x+2kh0Y/uy734ixb63PhG/WjD/2kRRq5ierfMwZqtudaFsxDFA2CABb+rKms4grbXYt6iCIKAeTPawMuyBMFQFNOFKt8bt0eYkfI19GTQi17TeJEZYiukPloF1T87qLdPigXQDipAfNnZdtXrTZMEjgnsYraeD6wskvBs2lA5JPNPTwoY+7rd1G8KGLEQ0L/37B04iKNDxoEDv4D7AxA+oC8qw6q+3A9oBraWb5g0SWSC26wOInJEXnUOYPaWIa1W3o5Oxxm52tdUyKKoJ5sJuUfUsrNeybyjD08jhgqp3P2zhCp9V4fN2BZ2LqBTcIk14YOmbKsfjmnCOKET3Qp+JeWUOyGFCSvNl5blbDiBm3BiZPcnlAlyeDU8ZiJDOZqgIBWhR1Qnfh4A/HhsL8Hgd3UGtfT0syUONW4byup9bhHyb+eDBaNgdZnWn7+3xlAIxzCjJjUrb9BQ78G3ZO4m8Psjg1Bpwxywrem1jdf5B3s5lA4K12tLMGq2eYtKiSRY+MvaBUYr9g/WZAHsC8kRj1di+JEWNbp0zjaiKHK8sBS/aTqN8/hC8QCoPJDCJQUDovtc7/W25Uyu0l29bpM2tj9oBdNHHz59xpQH0ylSqSB/H6aILNvhxGO/8p6pGNmtJc9BI0WMiLLJhqroBZzBDZ195l+prgEvR4tTMidmVQJlpAcHT5XcR+24VuO9ahBjhSw4mlBG+BHcuRCLjorJtsnZ5NIDGfvKqRnPFWdXB1FfSQ3DMQnn8I0WF/I03zRIjPB7+HichcwreTmHe5JlIzmrL3zdQ05Hsi3tVU/VJ1DyjDLb/eAFK07X4CUg9xdOFzZrdHbzx2QGS5PzZfjYHpU72zaLJFkyFNpZyluZvNa4JQrame8HFAje0r/W2imeeIx7RVrbxymmBDV6AI9YMZqcfri1ovqA9MxlnVqcjJL0m+ui1nxVAF06LMsedy9sLDgYyCBzl3CkWt1y+iHi9MQuauov3MLXgDqcotCa+CQHKrra88lTcn8rsfVcIHZa8lgD65T+24AXJiqMqyZLwq+bJRxBJVChZHLlrfUT1noIXMUE97RIqEIp7xSOOS3gDaK2RUBq0up5x2+arbMfikeIgdR9Vj5/sqgbSm+/jVTAyBFBNPRhy7iGvhRliT+kdArxriOaEPXyhnbBB5qqBUxcXhAJcmH9UDRRP7uCyKGSQrZAjPBK1V/UigGbawqgHwhPdOxmrcLgZHh07HZP+vdrbR4wK7h/eSYrqhtXJbP3NtFF4/bRZeFTs5qgUIpnmw/HGAdv+Bx7N+w0TA/W4XNpnJpXhu1h0WnDkhL0UqsdVQZgX33kd8aYzFw3ojoGNLLqY7URpVboxCksW3m8owlXqes2ptzOt8PJcqlA6wHqmYvYIANEgssIPpSOsJC1GXqfOE+U58E4XT3KK1rtEJ0bDxbusYaAXaSMk6oz1qQxaZGRX9CldFvZ40FBZ9C7JybummB9/qxUPNxKR6NDxoED+4D7AxjYn4D2MQLlJtLjbvLPW6Yg7Dx/RTiOcuH0PXQ4UfpX9qEudSkHSAT9g6rOb1jWwFZMS4opepynZbcs2MCWX1Sbplqsi7cwoeg71p6YkDLqhH9DLcD5gvywRvebrHmDhEUpS5nDAZMSa4sftTcumsKzJvEYUUvbjjaZ/spw0lQpkeflkryLx4YCpAlhj6RIhtvBSgncTHDz2l/z0NXk6Mw/OsE+kPUTP1uNgAva6MzQSEMLWrvJdxq53tlr55zq1qFoLkMmAbDiae0qTna1Abf/HzcSnqxxKBcggjELPVV71WUjiypjFANl4vhZ4VyxWsYcV3+OprMCBz+81BjolnA71Esf5CvRFaSxkZApkr3+4tS0ybm/BSMJt7QFNtE5gCfoFpncWqz08qk1pVmRyeloLtpABH69gRcxSJPeH87EEBQbf9NNDLT+ZSrWjSrmF/9fYF798VMlfTj5NtPk/pKnh3+/ekKqn3j3SOG3Rp3LWl1PgNM58CSWF/0cdBAj8wq6f81BcYOlIYAXveOeklR9F3mqoefd0T1Z2KVx8WgP2SCAJQAGAcczBNHky+p/pnpEMzX5BiaH+cD4SKwF3PDd51ymrNS1AFPPT4xMm5yvYIe1gx+AHBeVoj2Y7/RtBCAN8KN1b6XEI95eAdXyEtZEojVaiPmTsasMYraJNHNp7+OdCm7bxglbqBIXDe4OhJhawjvlvIVIo570tkPyC28m2MeXKnl9kfm9V6HjLJ6XG1iswP3n+imeuFqYX1v6QGKidCQzGZDRtop5YcIlch8TCDIwiOu6L8DanXrL6xSCNBmf8URf7sjl/g/FSsDFwGH8/rt5OapiEiQtkW1ilTMTx0ko4avL/JCKReMNoUTtuSA+Mag//QBsnCk2KB9GWC2wJg6SMysgc4qPblXP8OpXlNvEc83i/NIEmc1wmMvrcM662pGN2J+VH4CeKWSgabmlGjS+9MKiF/jGW2DKnURRqLOGZiOH+ZoCkWMXgS0AaHsjvyG/YBB6NK+0YKSANsbRwH+3MghQ8gmUOsoKtrJGwK2wlYdhC/i5E/tmwEyXlfdpkJKgjeTcrzAvP73UfLLXXcRzbSX/KZk/kTBbALWxPposCoanmkhODQSawjvrDoQvNXEl65eX/jpeVAwhlvv5WxIpHMTDMssGKcFWqS3Kz4IFPAlnOB+Kgi2MYvhiVDbN+BcrBEfWcfGCPuhAssCp0natL2GWwMdRCUzLh3EUVFddoJVPb/r8Ot59fjm7W+NBo3K1HC2O/2i1sF3eFqNDxoEEN4D7AxTv1n/l/m/vmkJfFDveSfO6gz+8JFj48aQBRrC89la5qv75OISXeBCJaLTlFoNTVBgpTFqZLkjI9234UcO5v0PXfpARTg2m7DhpY9dgkrqjQAjNfp7Kxp7HZqWZYjPN0EUqjJDs53kVqAvVUmxlHR5j/UGQKT8Ya6RCKtFYqE7m2sSL+UqbKOAGuUg4u/fCbhosqW4IyxvCKShszRTmrpq+l7ADiLFFxJwj+FNIlQtiIGF4b+kRZWJp77HpSipSahOxQRnenk3X5Uy1jWOL62GTLcxl5clfX7HxcHl0ffUXdR0n7wQ1ych3i2c7RiQN9IWE66h1GUAirEXdS7dQPtqeziaz0Hc6MoFbfWDgrUZmO9lxMNb/uryhhSu1RUB0tnhUWZGHaKNfkjTRhhYFbKZrH7tj8R6rcgH0JYj1Kvl9EQPAfhsC2fVS8DG75TvDteRtqR4LypyLBkTMj1Yl8iPMt5ApMUCBTknISB3qFsETbp2602Z7WDj5V/VvfKT+6HukgGYawjd+dXK2D2OcM26b2ghRxmxnXhpRCWGc2XmU4Olpc/mpP8j2cqIcOWKBjylogkPHouFuwqeplUofy3nI9qPLTE1SsDn/m7yBIVzfXqG1ODvaOUqTNRyymTyVmTQ17cLtVwBHpESZbk+OVGBrUxqhkKTMoVPE7v5Svig/DLlSSIAdxUwIhIYw8Z6H3L3Jbefb8JXNHpCDA8B+04OMdZDqI9hPwcErfKAx/mFPsr/zE3gbqoiMlpsGQwjJRJqNQHm0NWm8+FdwTqBDvIZxKKmSwrOgXt/EJILmKJXlkGCUyM+bEolAC0Qpitf7D7oCjviAQZoTEggcLCWvvVVErHSWHHwRNW2A84qTcjHbttrTRo6VZobx6kJmAeopZUfp4aHArglusD0vrRI/l7LTGVTCb5GsxcShtGPmOBoJFvuDPEduUPjmt5ZYRYUjxrR59EV0g12y5x87aMd0wS2RplgFCDGyCnOvXq27o0PsdHERPCnad+YddwK5Loh35ptm5l7i4fGd2dntQASvxwat9HX6hXayK1OqimnzCHS8LFBZQy8I88SXOfCivhgAlJbAZ22k6nXrrt2Guw75CS16bT/z3ZnZo54/WZHS62/BVTkyhFRwJMFPCLma/5EOU7SM0yiQk5kVbQ+ZrHiIJplQgNLRIsSe0lKuV4WmXNy2ZtM8jRQ2XjMwy+NoAfzNXhP7/w/UFiBeW7FOT3BgzABCt+e8/M8EXAB7GEHXFmXLy4J8yx9pHHsiiyTrSxOQHqNDxoEEdID7AxQ6E1i0RZlHC9uTp/0iGkJxAyM1cA5XG/kVtSlAWNsY8K03hpu4EJJwuOtE61GTf8fyyVrhnTAr8pE3L9f2CHdor+SIVuHU9QLBt1ruXTwB0ofPvxPc/6gj0yEaq8V2goXdML1NG/aCr3pX+SK4vE85Z1tFvcyKWoEMbQcYnM7kUxiWRzSMC99KK4D6DEwMLIygDD0ZD/kElLX8bX+2cFoF5KijA51P7anINjH2RQZCps+cvjJKDGx8hKaVI+hwyWnrptP/HWC3x9b+LuChZrM98FrBNUHLPv9Z/zRpNuq28ZKsxAalzAPgefZFuUtB3TD/FVicLdrrHLB0O1xwOuZMwSwpsFU3NDAve8uu7SolsU/VZj9xSLErbWt8Xhisi78ElnqO9HSS5YvF7raaf/P+vTQfWG+bQv9TNsqGlZ9vEiSLoJX6TN9hCmFvHchix6t5BfaW8f/C1ZXFC8mLd58FxAZbov9+9QlqD7sNH+VMNDWhdADkyuJ1GQMA80CFJ9ydMTrDaVoO4XRiP50kEMMbD/56XCfproioEq+nAX2ILjmyvysabLPyWessluAWd2bQOFLMQ/HEz1XJD2p3wFI0pfDAsMpsz9TYKlFFH5rlLH8b2EcTSa/3N7ax2nzfNq/Gzu77zyyzmUDS++4kmTe1OCcPcEeITYYO11RB0a2FgOvHhx5ydVZReLOFnAgf9U/i7Wop1Hg7pfPwqS+oTQtX+Tzf4YX2xvwwGtabkc3m57RfYCVA4I1lcbYCuzS8FKHv94a6HObh36pRnt8bWX8KQq0DnapftDuC5EUrWKVciih3ZWoxbuxdnPxTdXZlQs/5+Qm28qlQEDxPzThXdWIQg6Soec2bmekkG81bhvstZx/KlE3macVXMFiXr4K4IzvI7ZvRJjzVlUSFg+DjUki523BG3ENaNEcYl+YzFTpunR41wQewPxDLAmvBtiAqvd4SziXe49kfiAc/CSRMxSuJtn/c9C/2w4Viatcd8Ar/AQivV2tJOqL3iDauBz2g+qNKrH9RUy78NMkcvdAz2nIu9ax4FaBpGhSwKdsMVSkPEdh24xO9CzbhKBOZBZ8uMfIe/1gxTXWJF6lpU0eh/7DbABkEvdFQeka+dB5tFQRuY1tYiLTrCHzmZRCikrZGxwRIVGLdlxq/bKxlenrZ01hX7FLiHUj5Kl0O4aDDRvCp+GmYSwC4RMuMRpr5RRIoYa8TRT0CjWYjozM44rYD5z57R3PkoXN+PYON1hZSQs8Dmnd/2qqHrFQ0b+0eznRxV6NDxoEEr4D7AyG9wGVoIYkzhoQhxm5AHPM5WZhKvStfDjWVRNXHdrmB/K4QN0SzZNnNaMdW9/flwvvy8fYWtVXFNRo1NvO3jiwU9DYWal8I0cCBmEoJk5isBekT0Z2VGRrvqwuw12Pn6xitZLa5vkBPKGIHyczZjBCRgim21peAWzE0KqdoKqk5ks4S+9+FKbrsSp+PvdnochANbv0B7QF1Gp236SvasNiWaEV24IPVJc1wOhOYtNDOBny8Ux2p4lw6sQGb7ClZgXSTyjnbJaRzyrOBjjnXS665Uj3oeCF1ru98jBvqLdE1wD0d4W6/RtMKyIfKuO+G38MQXClvUSnvn1aDv106+sFoZSWNm84YZpbnhBTfsD6oIYRPStzqFfaAOXSjmVt8dJC+tvwwq0PmV8+R0nFzdsz+YFSYzhAtkx1T3sTXzOkCG87cS3KOC6BWl2j23IRdT+hO6gQsgSNuLGI05zYIXMxtxKyZYogxlCjIC/GyqINwUDo6sBcyKJxiGlEBgX865m68t38D23HpLthkaX+kLVIjN+szzYwKNKbD3R/CpHH6TL4yxyW1uauTvhQh8KoFlo5CBE1FZ0uPsWvC8hsxP7B1g1872589LPkFotsqQHcd22MQgIsCpEEy3ERxRxi/PJSrgNFwm+sGLgG+dWNtbXEVRiLGb3zbmcHzWXK1LxuTvFeEhfc1kxlQDLVUC8TdRjuvr0x2ZZPMD4LuOUeTdyin30NlQbm6yF5QD25iLkt/0W3uLkLUq92vHkWp+CLbI0bB50BhKuIZEl/66u9+jc1lpSNZeFip/Ubl2IZ89LYBro6aTvgZuPvP9ALFdx+MhlOKOeW4OaxBMtnnqthsg8kbhggqapO9XEN0lDKhdiqLUYxWnnwDDxunVCwnnKybe6VxoB0afy9HUHGwuCNNot058eM4w7wW2TPfK8sibH7fV6Kb6l25FaB2ekrraV2Ct1USsV0CO3TvQOxAGSR/C3hUWckX1RRZWEFaCy33XQShVzGG24qUzJXRtA+5eOosclPqldFQoGBi1D5BFZqcO3pirkcFWXXDX1Wyd1laxVYazRrs8C+xTQv808BVno9ZFh6OGHCmPnWaEZNc8VY74WCFeVLfsIyT+Al47m8McmoNYTRb8KXdi1jNiIam0vQX+400Zb/2quo4zilARNhz+TwNuh2cJ6Oy+jttQgVebVYOnZsqhW1DpShsjF/8YQ3e+wkjub23IZMA2rBQPm7AtbnH0KcdVPdytF0VRQj2qN4FW4wt6ymdilIlKsqOsM41tqNDxoEE7ID7AxmYEaOBbdbPsgCnrQ1xFYP0wh7yj4qCY0OtBNOSIqwbrj7/rszKEXyoSERMK6uekoY/huUbcgTT/GW9QkjbhMDRJEuqeq822TGQtoLIobAhOP7r21o9QON7HC9uimjgA66DjBSwKsA0Pl+CeBk7jkkuSG2eghxfyNnFv71nzFaFrFSH9OeFgfoConLw0cKC4XMtg6uXFw/EYung0PjcAUkQdfEQZkJxjY3N85/uQUcj4d+aaWgUR7UeywszwChyIBLr6Gqp2ckLrjcGACoiPoMA1baZBP0UAP37LL0HCh7jar3zut6Ae9HUt0Ff8KR9aC7Lhjw2F4L1dJFu0LhzlL4OCT6YuPgxMuwfwtfk3EmSpspkRzpyaY9PtdlVWD5Xoyr1KNrWFgtO2c4dzTfpk9aOSNvQ0mOqVlKBOc8Z8KnVFSsJo0qn995T99Wg63W4sm81hWYfsrMwdd9YduvwTkw4F8C9BRJUrrgx0zLwHc7swvOm8IkiILSCge7iIjr6w+TH+gDW1NOo+O5IqzhcJmk/otiVu2khZ4FpHshFOmlXleN04JDpKqYqoOkS3JzTXtmmViuc5I4syytC23Ht+M8ELbCb/e7Dn2wc+d7sjkP3Z4A36+6yIzKPY+ySs0py7lrnZQsYisIUAXMRbvr8lZyN6jvW11/shzdhbnLLb0cL2m2+jEgbSKgraBLgKO2fvxKBdzWhX65NFChx/0g4RrRrxk4pcKdXNNtR5JXZbQoaxtcb7xK1D0C8rRZ5C94hXKqPF05/HWXXMj43raEkERkuEjYXR8lcGi7hOrx3YKDD/Enc2nF92pjUB7PwTQGy94RW/ga1mKtTRRSm3ILaPbESPTf82Cd1B8ZXEmVXnLuEeA3L1J7QV/CvyOmg4Pfmni9jhn1sw9n2DuwdU2NJSckb8Z1Z/5Kl7QAwiW3MsbeGLH1d0XIs2L+ZdSilMMuUa9cYiXWQ++ahqpG15LrYR0dws8j1QZbmbl/l2uE4Vi/xMfS/NKnzAqb3djC8Jf0xBdJEv/do8p/YkjitKahpf/Jojt0FuiwJsEM9kIzfqtzUk1lV8xm/scBLnp0jClJkscI/eT3QtCKaWS2de/eJveYreEo70KZNEJyz1RzJFzdsakPQaNb5YeLxAMVwHs6Jo22PPHgqjHeTqPFwIlcAlCpCFMMo+O30XPGSqf9vI/xiis8EH/y9L53d2hXGYLm7Q92DGCDb4NM1hh1xgznKm/oVk1x7aeFDE6NwR5vRY4/U9OJf4ryMHD7fbywEmNT6hKNDxoEFKID7AxAVFQQVTQLgaVlBRFEyu0XNV4idpZ+he87bQA1MVodYzdHhJm5NQZ8qal012gWN1+qlMFnIOrwulQLu10I4az++FfGDo1LGsWy/kftCLheb96pGzpMP7XoujEHBTg49GA6jeruGQ8usrshf+MhFm+ZugcD2QTKV6JnzHrC4IhEezl3SeXdLz3Ul8DLHIvKQFp5sWXqHy1TiEL4EpjPo0fgJ5RSSEsYweLrO3FgIF2ERuzB0d5/dFugUNDRtLq+SHRjMrZc7sv6CVF/8y3vZn9Len0DeUkJIHkSVjzOkEX57+rQjJFW1pR90PhFBUF/SYmCxmNETyughT48qVMOd4r4Xasx5WQhgZRJrdb38s4Da3C62qjYkiOnmEFrbfpcubJ6jxt8/52Z9L+JNHLfdhzusD5K8xBHMQxA/5CgZunILEP4mMjvupDULAVwaNOzCn3bBOwUrxkwe6A8bHivZ38dpXX3OeJBJjgdLYmB/euB5XlF4Yr2Wwbg3GF70VO4ugu2NU3kzF8V0DamiMlfrJ7wieFEQpuo+erX1XbV9HAiSAxQBA97/R4TOycoPfpgi2zZaOsDUzveb05FPPSmZelL4fNo8NtE0H55mhIICUHBtBero1l+iKbbFct4Njcl9BdpkMfaqtghJtyiwj7eWJpY4QWLnvMSkQFdmik2yYxjiDNQPKmO1aPxIznOpXsfMVLnNSpVlrXwvgAD6pbpra9D5JzKcKL/V/BBiXhNFrvsikH3ZfWpskbgdG9d9Rblz3zjPOXuSCWQJu6OjXjBGDDhYO2TI2z0VcF9afkWTNxhGULDKSW+L++bpmtTUzBwwGc4lixt3spuAI040YWj1aPQUOVG6thU/Z8DQUha5smdE6Uf1zM8Kdecb/qBb9KcdYMD9ytf1ybTadbqROgPpJKjw3vj8emgTp+1SvNm5t4eGWBBEpni5GQh3HpZCohAlxOS2niFdd5QW4FELGVr+Fh/fegJZxJokfTDDpYWhyerMHkI/VhzCda6jJBU88c8JptOn94IpZOzlMTD6NljE7wdODt9VDssO2syCz3ykkY4kqCmofHOz9Puq8eQ6n1pHkhPC0zvKPF2pmmb4V865hNxcDdMBRP2Jrr92LnBr3TFolBZ0gDlBYAdAhDEmIorZp/ljM/KxdnHcZblF8PSKRmvP8ELyHEIRzW0YhvJSzXvN3dH1oSE0CBJ80DMURFGplBYoe1D+FbRMa/I/dxnbT704Co6aeBQLOViYv4TJr/yHoTvlbzkPLFYVIEHhfo+2g6NDxoEFZID7AxOdZurXf58vmQfI+ieYPkoeKkFRFQLOeVfdnagiTffxGKVJOh8b3ALx4N/RfZh/uascMD/NC6+2153r6V9igA1YMlXbFEOYbWK24z8kThpgFYsMnCSJFMdTuC7GEsQF9RYNUkr/DAD/cYgjIVG4JbgqDATL2p+z/WesqxnpyPHXUmPM8t7vbIX2lisn1kpAUA6bzlrIv5eDYg+J96BuQ9rVr8zeScg9UPmrtAVzm4eVq/d7/i/mT80xCNKoH3SOhVMk8UQyStDsDIXWt3Ifc7YtKTC9um6QRavmQH3HDYfODXNRbobZvD+UPbXNQCs/gZ7OfDr5UcXj0Zv3L0o5IcFmco0FUkvX63VTT5mlvBGzZE6Cg351Ved/29NSpPnffEmweQXbtky1hRe2QqZYUS82e9PmQ0cbYRHO3s+/z2eKESCkCWCqbRNksahJLKwt7pR40vbTGeRWtr9DRe59K/IHWz9ru3T1wnv+fkpRCaU3Jmu9iyFsdaSOr25Pk/puaIdWUP8y+w4HaliD2m0XPQncJImGJO0YQJUOh5pV1HWYFeZaa/I1uIZ5AkxMMQZ0rljgMCFmzxjpP+ciJ3H8+8i5SbU8RMv5N+6ZeKlwzqJqVaSVlgyOBMv96oRVWTEPwMzTwdpp8yrFCkdvDpt7mW9N2gq4JPiy4Z+ccKkhiZzVAm93tRDzYIEJQY48h7y4yTRJDll9jUcVnbKXh1AUtMABK+Qf89TGmqUyShEGvTXN0y6XW4ydgd2m3S5rA3bxKGqg+w1xsQyVEb9/PbOGg0QGfwMYVSIg1eNoJ1+2WQsXI4rSjOqw3xrQpnzCm89AnAMs66XFi6tAsX8bjNCipXsSuWayy5QAcRalV+eWWb0h0Qd/YpfBwoKTqgof1KJthvHRKxqtz/SPvJ0EPxJaEGgCkm0njtyIaMK0rxjK/Ijg9SzMjYJDstVtTg8ds6lQT781vHPV/UvTGmY2uijc7LlWNIDaNxCGGgX+VTwqukEfY07IDDci2NdgVuIS9Fh22Rtb5IVtke/8foF/4ZTz/8Z4qMk9xnuaQzpx6xJ/+p6T/dd77NtVcoC0GHZzeKADnoqbaWOkslP2nL7bBIeRD3HGFNtZuCy2TYtFHAj4uTc5PZZ9zKy8UiRoJwlzqN+h3RB82wx9kMX3TEiJEsGja0la2RAh1sbG/wQ2Urex7HRWoc38klC46lymRHrUXTmz4nVy2EmDOrda5zwriJnmA3NhwqH/xVI2e3y1EjaLqLG6N9dprRa/nIEwRRnnu3IC2qNDxoEFoID7AxD+dAZoIv54Gzy55I11Nxs3A/eqFgZNUrmjuYFAFEG8kPgekNoWCBVt+ziaq8augh++bRNFhMWP102jH0wgf2rib0Ij/nHbBxtkt4wp4Iu33o4aQqLAZgEiietf4XoLJEAtCP+lCvg2mClEnXK4oOh/PQzWRlkKMbC3xypK2LSl7oyMmA+jMTT9veM1XHmFuoGYWy16C7dS55k2LOhsFGiUmPkT7CBinv1tt7f1cNtS2za0vBbzqay92CA2IxTxZVuRUTOAjLfQfvvLziDo2jqE2abuURuPnV2EJzf5NNiq2aTVym0k6OnOrRngWeUa3PZcp2q3edqnSFlvV3baW6D1aBO8K7y+08vh6p2U8xSWflqt/FM+MuSw6HWry70XCbWJlbYNuI6oMOHOR4UItKMwO3ibKRMocGGrF4r11eBQEkUdPL9F/yo+pzil1oYkeP350ZZ25heTeIg7zzdhmk/OX321zNrJMxZDXMTwAgn3juQ1zxAhllzT+XuA6cHUtNHnmlxdshwMCUMwJ662vYD0dUV+stdy5e3kX7pgATxX+DbYP00EBzcDJim24Ttke/BBQNOsoFF/doimD1fhQrNeoGmCWS4Z7JLGE4OoiXPLoV4l8JU0ZPKq4IZ9DG9RjpQMZOunc3bzz/i/9KdUsuN9wJpe3FsJiCD0hM+GDbQUQFfTwar6adbCXm4OGRGh6Mv/HKuLkQK4X5GkScpa6NOWwIrcmyZh9pCBiRJJhlRZJbVu9IPF0jHByPotx3qdgOULDJ2KSH+u3YkVaMjYOB8ETEGUlVHzchwo63rO/LnC+UwgmzjSjUpVygkJYJAM2Iqqjjkn3axPNGQ6L1aPt6cbnMGZw4Ggxt0BC1KWpmGdY9vb2V5Wq6BagjS/Pkx7cfJqZ0PRTE61awqkXERdtBt5taFPjEXulzh4DCHb6V5/89t1bFPf3oyeBc8mEH0dZjaWb2d2VjUUa6vE4JJkJT6w2NfhU5Y/JAx4iTdzg3Tll4xRGZ38wPPbpPqlQFe/1Z6U75xA0XboM01UrZ3SdDVaTH7f11W5jdoR0qJd3Hxm9Pdn1zD4vkrbKg97OO3XT43n1vp5zW1XB2GiPu3pp17xCpGaWdvzTK5p3MCEIrQ43dDUjIeZDJ+lh6DiPau6LQSMNZPdRtZMnMFb7R0Ni2lDxOiTk+kPVJP1T7b9ISE+mK2yIW8Yje96UBnVOZv0Y/6yZcHFr0jmUDRTe/LUqKEtGc3AYEbrTFaA3WtXvdNUU52nwUP8LVAhP8/rQ3gYtaNDxoEF3ID7AxIkZiLxZKk29rXyalFjQNkSLhocXqPr/eXBdH3vHf9de7cUADQ9/VGJdsESmjC9SfwNnlyaGSuaCiEqYo2IipCg6T3XG4j6BKXGO/C+YeokoNe7B/3EliGosTLwTlO9jxTL9PM+BsmwhJwJ6BGoeRKoMsRBrEt7q0PpXCkSuvOoFfp,
wQ438cef0DH1Fx86B66H0McDBixWj3b5MWFFax5LZh28OTvEfcuocux0dwT1MGJjFVRARqtt7OA0AME+Eq11OM5NWolVI+U65WaKe0MTVf1FYdEQjNxE4B/rzVfnrH0Gv3ce3sDnmzDCNv7yOebC9+G2IjSMm/9asfXBt45r4Z+dpWQKidKrSQDGQACUf1mKz8AYSTC7/vAFM+U0EgqTnZ/w9rAa83RDVQjFpdM81laQJlyaQfJbIizdYddWQvckPBpPuthhNnD16afyAFjGubd+ZQpR1RDb4SwFJ8v8wg3Yy18rVXu8pnFN4gY8OhBKcdFXJbp5Kw/4qxyNnOTRe+H5F0jTfC1aM74rxiqSDDo+OWpnFcjBGSRKj3Kbi4vy91t9rwxlSgHnuZtPK0T7TYwFoyRH1u2q5GKVjavaNa4AwsWEerz3HL9ngDCDR6CXaL4YPD02kfBat213qEULOEAZLfV6Lo0nKzz5rYVBi298FOrn+PZGawXn7S9qrZTfVZHviWgZAFDCP4N7y4aSfLIWmtUKmXmYFrqTDRG26v+JgI5y5eeCt/2SAzSxY9tyvyzzC78EkLFxVWS1Zp7ir/FMnIOFy0yjzO12GvZFersREBn0SHv3PFI+tVbJ7artINyCz2cK1cvOdT2RNyg2FSl6SbyCUPs5erM7Hg8SHfNloyruX2vsSR34V9JruTf5onMsL+YqmlwX3ohxZWkAfeNMyrkBgwVgwqz6PtUnzIjIntRm7s/95nnjXwGJee0kWckIPypPPNbXoSfidSK17b8SJpy6zJ3Y5WoTRBSY386ZVt0PEZCk+6zkSg/J6b24fvd3wlt38UfpzVlhT3/oIciTq22E+p7p4JryBxBRRvRp5gjBYXYBBsSRtXNBFe3YBENA96m7YEmMrRzX1pzCYUJY4xLhDLUouQQ2dnZQjN9T8LfzAWuomA2TNhif248Iltko3e2+YG4+12ZBaafsj1NdLMvRtn+O0y+0K/G3LgSywMPDquTgW4TvpCOao/pMpDzkrtAJIWIXQS7WOn0dGJwBLdXHkm5LjtNa3SoS0u36GLjV8z/8eF9OYyCOWkZgIvtTGw7s//AmkuJNLKNDxoEGGID7AxT6pHDKiurYHCv/w1acv6CzZln17xksocjPTyhxU6lTLwFv90ntlPv4jtIrW06zopPpJOGe9fSKRFnij+3hVoIjwNmXJ/ey73rXlHOiRWL9fVMWAdXjyVJGJERfSAnGc0qJc/nM4sZS0ZJJhW6ZOBPkhbYxXpjUn7jKaZlNVIrHCGgidSJoGystLZOzaZ1HK/TBf9O8U5aL4pNKqTvTCG1HlVHUWr9ypKmXDtUor474acS9dilIQA8YYiAv2ezlqVTMGGqXpe5OrCQyf1dW1ZCWPsCdXcWAPHlJTO2hVHmVn4SX6YJU3ndlO3VXEtRxc9uw12F+0mLkF3zEZ02auzs3RUHAUciuzA9c7lmX++QOJ8UnDWfKyDzPU9YD8/tgofkSEbcMfMww0qCrk5UirzTX50IMUhWsS9I+1ITlq3n+FN5DkBaD9TMBVKT23i5qt9CkPqn9hPCAalDQBbG6npEmLwc92e2+fxtVJa5JUv19/1ont6+HiTFwJzRpj6QN5InorK4hEV7RWo/7cRlNWHOzYh8OMjNXubG31eYXZ9YIFsopMt920sgD9EsgbGrumKu7xumNNgggMoU0VOV73qd+aWTHH8JQ8GSOZGwZTvEHR/OXZ3+92KYnc6qAnUkhTOWYFcz7ehzMx4eS9HqVnLykIOe5JamM3hrrRoBitwBOb0HJTwaUXH6conal7KcD3L//k0+HwLEJIayv44wnRLbbYYywyhcen6XoBBKAi1qL0VFL30KiBWD1f1CHhq7Q9X0uQNpj9d4wrZ8qXdjld+9N6912/6nTwQAfJ8pilzsRD5P2XuejP0pCLd5M8+3fb9t+6f6+zqxhgUjeK++8T0IQFgBwQ4dEK48lfx4AcLufdPaf2+C/L2vKKGz0CzWX4y8lu+IICE2V1Ex6ryj75OyLmbuIrrMQb47mykRqRnOEEh7fwRGlAU3iyKJYWSjApnTsEMEltgGHourh1hgeBh46z5jIsFtvKhIDvdZQpN0/mWzCcQxrp++XbuB79g4+0UfibYcy2qhmFyS9rh0Fd20jB0g8uPwsc6Z1XE2Q3dJSj+SkGPLHBnhFdGvFY+8ehgoN5uVz4jT/vYFaJWZpL35F5boTbP4iUJfW/uLk8Vs0p0+6ytgW4ZKCvY8E7bCrMZzG3d08eeUotmJnU7uh47EDp84GkUf3pA44s/1znrHSmW/qp2f6XyP+iheXOACSWqolk11uRb9Br93lRidc0gvxCZJRiqs+NIcN/PWbLNZuq+SOpZk7vnQFfxtT8pe0qqNDxoEGVID7AxTdmeFA4q2T1N47KBfSFg9WgFTZ5ukR2uZoD5Wvo0KKsgbPLQC+AwVv7TzBjUPYBM4FbtmEk3gFEnK4dU9KKeXU9nsSbrlCOPW8EscLo4wx7pWCMRKTM4FcTEUZeYj0cThM/1dKVOhfyFlcM/6RjXfEbMY5JPL+uOLiYeg5Fup0ThZdtEmoKuLDk7IBxJBD/fNA0yVbjRPvmvl38NfmGkJiCuDwWwobCmWa34TMCV9t4no0E+xsgB9VGdmGa15+Dws/h28uu2P7c6Y0HtEbHlR179pGSNydVBT/Ao5UHTWiqTZClDDZLFw9i4Ah7zVManx1+wYiFuTFAlboK7ME6g02/rd9MMIvjzfPquA5d+6qITWelwPjVrS9O1Nn5jdY6/7isaNSVNFQvztmvUd7MSSD41MWdkYuQBYw18+n2ee9EEh883P0+F/zzzfAVCUGATIbwKiR44/yCPjx6xkHUK2Fegf2acV5V+WANznXcdVDaqQSpsOUC3KUt5UmSQuzVfdFh6yyEoIqe2o1uVhZleivZw7p0tCfufNVDBEGgxeHmQtVTtXbHRxDfJXOVlJvervXv/QiVsVL2T4RwvkhuGlALu8re8IQ+BQQeQKCxI6iJQmWEDV5N+AV2xSqIZ70XdRfnoEVCDXDI4VftFSa6ACWuQbu8Stz8VuffZrYi7t6GVf3khPnLZCCmrJR566QV+c4tUnrGgHUMzedmptdyATt4yc8RVUjZiRx+UlLcmgRLMr85hm2nrMF6Hb+MNK5Ih3WFiqzAH9p3eEE3C7GqwMJLxDWz+/+d8LljBpoje6RtNfcuvTQgQWkN/x0eAk+GGTAHHO42TuEMzKVNDZ4OmQbxF+z7gEH6QifLQ+VDRtLa7eMYqSRwRYUZqnkEBIyqeLQJ5CBxl15J8F9mDKdz6NnC9gEfyQxKKdxp5KCpaYctYDhgyiHgKY9iSbMGArgTMw73J+W6vXcAzs29DphWjdm4CsbiMpwdFYOAMGzzzvhJ1o1HeGr0XJ3JjFghKRYZ/dXPVjUX+vdY/V9uHGVjqTc8pLfNlllfsfzu0lMZzHor8ZyL5q/CGrg+BUJwMZuNml1ELUzDGN2TIMoudijwBnXFUueglCSeQ7kbz3vsWio8I/JHISUNGJJp566XQ9fmwLamOU7WXWUyP0mGnpNvQU3+oiuE/9J8/xNgD4Mz/XcjA5wfdVVKrJSG0hkYwauO9ufnIe5LVtkj6SoNxxPijEiOqsGlmkfyMuKWY3xskumcRNXCyq4PT7P0jSwwe9UVKNDxoEGkID7AxT5iRHIAaWYUdvM1/l2hvCMD6PR1B3LX32mBTO1nUbs6jPWSjysHV/+i5erbetoQnshxaZW9BHeNmxDEzNUCcXdzPT1zo0TP7vZl0YJlu2dO07LFZwUPeScrofbuHBnX/oPolBZ5yjC+s46safSefCIkKOiyFc8Us4wmlhLHKFlLXzUFa8ncw3uk3bnnkaLiTu3tiRDhTSnkALAsCo6c+xNXRVFZu+D5XQZMxKlfxUePHaJLbCPlJzw+gYs6ZO9oGyt2t4Le9wzOkbeqs75b7Z3TN50vGn1h4kAHRy/9CAxOQTw7Qsym570KzvAGhKr544+op21W1ni9eYRFZ7Y5kE2HfbLMFiFpJoTa66oD3tG0U4Yi5U+xm8nO8/t50HxeXDvzwzqbs/Emh580SU/HXxKOyAEs5zPWvKMBJsCLz+sEBvFtUerNYwSU9Tb5NRbwqd84tpUrQB8MhmnUP64us01Vo4LZ1+KwtyuWjInbpuopjVNvpyN7AocRkvdbz4Z1ayLU6l/hbgZwfOaRYX9SOBWBEs1RT+3W4QkmDJVoUZrVpU+AMswFBmVnQjRHAguZv7Xhi6OT+zm9wvAmZT5OPZFFedIXxNKRZAB31stg7Qh31iwmvnjDRayor8AVC9C9c31Xc6YRi5iN4dSLp+vm+tEidtRwKnCTKQq06h7YIvryutEw635ebCUx297LJB9me6XWaYLF4kTvDAIs5XCp3OyqE/HchLMMO1Du1aDIlqRf64UTyCXAPCs7pdP+HGzRATrkGAmJ22T0mvnF5dEVAD2bDsUkOGwNSjCMxHCyiC26FFyMaJ+inIW7vj33iu+ZPPC+pk6n7hizRtDIzchNGsY7a2ji3Nz6gkuGw4tVHcWjgusJxRjD7Pts8+bBbHIKkTwId2FYOPKqr1uzMRB40xUwKtLvCugfUU6ewpjHMZIvUPQZ4DSRufI18NKRQU8i+rkz2p8Jqd6IJNI4NsI2KXgX18VO81oW1P2xzhKT83Q+DeUt3o06ey9fo0hp7jp2Xoik2WGeibMu11E/djb1ocJ2Bf3uXG11mp853WBMdyHxDOK++bnrVsYGKW7PItW+W/Mb3N9Fw35J4LhRCJks1p8gvHgzQrLNj0hDZKwL3ldnTPcBAmAzVzxH7PBl3AQHBd9l1n9+FYIfm7ztp9hIXMjOVhQTP1saXXBqdspD7Q9KgA4o1DdS8Sd5AXOhFmhxZjDGvH5R4+vKQq9c0NPWkyU8hE6kN5bMzXoKeM9kR3Hbnq0G6e2PpJkb+HfGPxWSKNDxoEGzID7AxxT4roS2uN8QHOTgyEdfzNfEpjDLhuiBRqqkp7ymt+s0lVcqkc167PZNEpfSXMmC7ASuRusHPylp4L1IJae5y6ksyGuRrgj1lFOrzxTZhCoUmxkELItehDpm/Tz/sA42KfHLWwSdIYGL2w+yIMJlWm36jDnfdXaQRSaMNxRD4Hg/k51tLkDNx+SdmOSJZMs7PKbEPS9ynYQUpccK3DzY6vmlDjTK96IcC0QJnRl6oP1I3Nmuz+Cq0DmFG9OJPF1fpCc0JJ705oRwYtR+XmBt+LzcOuHn072arVDN+L8dvvsPaOz6FjdEgb2WH/5aBqif/1oXylwkfMgeF4UZVA/WBs03QLU5SzoRwTvOxikY8DFV1FnWXMWikZPn05vfSscCImAz6xIMVobaJjAP1v8hvfio3LHtMe+ZVoyQoRFNbHFEUpSFkwINc1CEpcCOqNb6y6W2TtsuxPAwHtfCH5KaOtOJCQwq78dT3oAUDeTWtS3ixWCp3pE24ml/G468LSr7itKhEKJU/GF0dec73CbW10rU8BWLSY88u2Wwjq2ycCG16rlO7ambn69ElxcJk2HCsoFuze8r3BX087ovLNUKYPdxd19C5HFw4Z4v3vbvGcmV3n+W7jOwmaZdk9YRJZLEZsoaHFLfM2bo2kv5s2OnRfAldCn4yyCS48VCBNHUsAyFKacLdMtCiKXAVEKk6NjgWX9tpWzOKm+bCs6z8XUNJGeAOcXKbf4WWHGJI0TIsuQXk/K/t1b3YWHTtuBpPuXeYfrTTt8MWM/cWhtS8BPODZ8ysQ9VTjjqWDxBQCVjaFNoJ/xN4ZzgaQKrx8I0EPImnq7X/RlxLwu7JqRCraAkmsYhU54dQo4Tye30jfr2IKIUaeNRsJshe9ze2p90VIdAgOT4v0WAHDwLLi85K7aS03EYvgV3YZzKdkUEiucMg9DVsPOjCJDHXK0E7q89tzzKtbNkrFZIlI1YUGoKCcPtlLQZgfhGLQTmOCYQfP1sXB9yMzh0fhfbLPmffF7yU6bbtq1DP5gVuehPJ4nnFbVqHUfbJ/5GUfz3W1trSAzI7GweBK/wcotpU1o03vyGgVLeBcyE+T5ByXdc9y+EI3l1gocUk52EONGjQtYjzaLwjsZFY+4TUcawCz4FuZmdzKZ3DnkSzxglfMIfRtz0qciUgb/6Z7puZ/IYsMQWuScGIDZ7W7rwYnPF4fwuzgMm/u/FqiWlgNBagxZAFaW0nk83uVKdble8dGRLID+k7reKsH3VwdGzjd0mizgHSv6zt8+46NDxoEHCID7AxBLDu0BNr6cPLm4ZJgD2dj+4OI+NNT6q/j3ZDfhFfVCeh/2Ss9W6P+Q5DXNxiQbVoa0GcqewdsJmaKNwCK9Mt2ycAebVnjZ/NI9fU2CqNJwPV3qDC17GI8vWid973tEPPFda/bYVEUBsxFu1xbEeNNYFVx8Rc5BkIjm14PvW769bl9V7bl/OzzXA4jpn6N3T62fH/eMTudYGeLsoh4ulO7BFejh6N52h7YVgb7Fwdj2NL4QkvLwJfhv239b0EJuUOTsixzNwKBT+HlZGkGYQFF1K6YrQ2MPVoT111pJKds6YFNWiODSiA9TP2XbHLmhDGYKEDWdL2afNzg+XC0zopODgfvLCCpV/qOKW3sJwoKTcA8Y1O/c/FtPTX6puwF1M4lI/6xfHCd2STrbsWwWmTQJq2mKE9MqYBFSIB2xywd3PJJWxPau/ALc3lhZDETv0iUIzAgql085hlYYAYfgbx9b1P5tCiYfo2bkN3gQOInERD4bj9628AUyClElI16XSUD0B0Okvx+Rjc1UGkEjHYZgn4pv8FuZkb/t55HWsXmO6QRF5vHkudXKJIOpG8BP8gcTkI3n8fCX7WOFnVzBLw67K0gDsR8NQcf9pBAhvYl3bnhc4KreGrmRNymYy46+EwR8zEUHq1OUD8HoG88DSEr3F72ncqNii3JDYICqUdT07P5qYKopjDU9uzQHctrxH/2lio6B6W4APw9RC4iF10CKgQbmZpyTNH4D6fbj9m+wm74/lFhnub/GRnw/s58uiOBhAtCTmtjNaS0l1RDIEhkHTD6mYI+b98N09AAFjEDsvie77h7qJYSsKSuulBC1MXchJvxS8Co+wxNKuEBOt74bjUeo0EHhGzY7rnsEyFTRlgwE37sjW26/Q18A4NWzIXJtnWFbPXS4i71SOgnnRo9WK59UZhq1y3WTEbJzDUwFC1ZJkEp/r+ACHj+q2D1sB13y5R0rG6qfV6t1p9dQnxJIHJBfUeVX2G7C7hyYq85i/dRiJjDFrgEAKuNxDqDz9fDSMNdbGuXtUh8K48vEl0SLWFcntKxLeOysBbT/UghKu0cX/rROpVd0XrTHxl4eZK16d6scoJb8ZooEJ8MX2sHiUSGQQGWNziQorZom9cvBlXw63tEjziXZCA1fCC55zT/n2YNamXL4TfUcH4MJtgfziXVVGAtkKnknCi50FysU5jozbdyn+06BZdZsc4Mf2Y/BYrqje2T8nWgr6cjNXswVo+r+mey2MqHqHBxrABl8gHVDiwOMG3AXA1jLT6xIzqNFCoEHRID7g/wR/Ekhz77y5MD/87PY4UCy6GsqnuZLK7jo1Ef+4YPHbr7FFvKe9S7ALU3f2Dd7hiD6liG69ESMEkvPC3+qXzlZXu1sOsY9HcaoLfGGFF4K1sFM5cjtC/VYz0qan1xSo/vDnA6wElFC+Owh7VJa6FjFSu3tWgu12HNuqoQzR600lvy9+bzBT5k1XeN7/pbI9wnRMEhQTE9XCJwZdZP2YoBZs3L5FCL8LiuxiAfg0/39a0Je2KjadMsCqtRTVclmA3Z1oSMfoPTKCZGHgLoQgskxy1ee/Kmr3B11ep1V06kEK7WsUKH7fIu2R2V9o5EAer5xVD/fWcy26kNP0pwT8z4OdjsnWrqtFu6pRprL6nvTafXF5UdXPnAPK7NVL3/3dimV6itgfaC64EiMR46dMeHYerqjjRxCDIiOrIRx2q+SuVMrMJ+W3kXs35ejI17iw3BBro9KfBJA5Du0oz9xUSZOf+D3TYa9ddHAqgnOwjByF3nVv1gAsIPk3LnaGk4vGpikXnJxKppNJdoV/agzUd5UkhwZkBmeHUL1lQO6yMfx0wQ/sodTch7MBPhs9TlhmqK2Dle5uIzGh4qZILVkyknCjsenLsY06JPIXZVoYmmQgGWkvTPVn/KtNQpQ3JNLvuLy+/gmZJm7WhhlJJb7lI7dTR2lOl+Eao/WKD2DnH6gJ59Vgu4oLkE180AWeUEbmloB2Rf36jJue4q3VkWkTBpG9YI5UBRqhTwSiPsOyb38Mgq0XQDASLnhikV3W6p7pmmHiJHmXnHmRuicClLiPaa4mJWUUgxSyHN3mv9VHcbIUxYEqDjBz25k/fO1uP4YpmWnBF9GeKQhYuLELVHbiJlxzFaIJXZnniMtLMahi2FxcmBDt89EGW1jNTqut0M4FgwA1L+PfHaj9gPlGKfgfYyUDA4PSDqVPiEx1lKGowB5NMtl91uRS41HgMLl6G16HqEFl44aQS/DFASTlZ/WJRilJhirALW4HV49tBcEV4UGFnEhyToRZ9+sxOLBcjwE1H+uMfEpYB/IbeVSXqBwYI2xquPd0dcT6KKTpf5vNP6bX4D2RAW8KJ4hiY9hnECpjt65wPJ3lCyqS0igE3cBgvye3orwpNSQmRJ7utP+O87wEDsadhs/l5kI61Vqf/EcNzTsApd8lCw30cUr++PAuWb/ce/00Kx3WaDcG1FDobFSbyFdm7JyuPhYQS6t/ipc1yMOxo66KkEr4COqtC/gbOYFhBdxZcVZdAbT7GcG2mYnzbPu7Y1nARBWlAVn2RjR6oVG9sU30aOvD8/v+G/csAN4S9/MUhNaQPnwceHREOIPZQamyKtbk8rr2R/2ysAYPAElqeVwNEXHl8taJxdMV+tID98ukbdq/f+uOu4Z4zVNFCpgT6UIaqEWcz7Qmir92sJYCb9/3+jDID8W9pOKnOb3EXiht+TPkEeexs9jMYrldZpQEgjkrS5h2jtsciStWS6tlNjaPg9G9TYVqKKUklqWrWWIL9DZ8Fmq973jWY9h2CpJ6l2SZoRonIXCQvOSaXWKQ/nKqARP6oDxmmirdhKRqBcGPfIvBXweqPJnyfjD3E3G0C3+ttp5N1kWG9sy5u93ZWUm2EswU992+eQ90xgrlbVea5rXIkU2sifHTfZz2wgxwbfCPUi9OZjGxd1+m3et35qvs/UsQOJu3aR0m0X/Oy7A/8lifp2eiLBk9d7xLHd6K6NDxoEHgID7AwwcOtE6AI9UbSK2Kyhv23eVUQNwsg/trGfy+mVCq24bre775isvHdQ9pvh31N8yhTGc+Vz/ZRSPmrzgQaO8OyG8rel54Wbf+8GbVy+i3FvIazz2hIAtgVXROobqIZRQHYynjsvcZ08reyplyFdDfRqG5/aPiFGX0dxtbpM2gGRJX2TABON0D9sWUgkPhow5yqtmKMFcGyVZBhsEG733/DaLqp3bZ41zjWAMJI2bdLIBRgF5p8Si0Gsh0V6e3tZKu9eMo+BFxmOU4+A1iKBXv1uDvVNzXtd9V9PkbHW9PZwBpKZxkBCP4/Bjx1bguWUfPZZwadwum1WATuaUEGfNtOHw0WQ41Xg1RJGYmfBpi9BHr4Fxa+xtKq96xob9GJOQgWV4dxb2et7lBLFZym2CkwY//yuC7847IVV4IDVNnR3m31F502ReIUB+8WWEPMwy9H7r9rPBcR0AvZ5L2j9PmBqbgrdA6k8vQM9tcucHR/ix1w28bkCxhxzyxHGpd5uQo7WmoKbbSJTtypd0iQdyRIJyZmeoFgNbbOI5W+w/o8aS9aYHmrE9tufjYniW9ma7yg1F5pJwJxx72JbyY29h4hsxDxHRifEbAqGnapjygYtcqH0WB0UVc4y6ZKAGOiaPLvmBd4MiwKt3sTUmmXSnaii5GpJQFx/57f7OGjUu+0dmFf686HtlLYTv4V317P3o/9U/CjO20r4lVw7dMRpjIF1mEYdOvHUzUsDKRTmSixV0+Ok/j/wAhcRlm/dOmL28PuAzTDYgjtYpZDoD4Y39OH5u9jXhxyrymiQTPbdtSGf8hFNKSHpT7aLp34+ePMdlSEtOxNfMyPGiqPEB/c4TOX96HPkI52pmVStY9jcMMscZk1zpaK82KjfmNJebRZimf2MQGQ77N+aZ//UI+qwUnpU7GXA6wIYW8SOc6F3pNw1UNBwaUAvIE7Ob5vyuaCYjd66riQBvgicCffx/TRtizwyn084a8hOR54nUGR5DPuWWzGztLvciYd02u+38UlzjbnIbuhnIUtYTEj9GB7S9zxnxttIDfQwL3YK5LIdixV5aptU6rI7/48IU+4HzR4MvQU9XxmxfTTZVQsiG5fFRrZfbAzVVDNpn8nKzTizWWMOY2vpCd+MdRhEe+hrqiDLM0G/77YP3swvT16ob42f9nqlNXPWHPw4Tfhx4qDp9Mxv7aFzcogyiiiKimK67TJ+HXXPh1EEDugDM9+TQjDc9+PAFxZfqqaX46z4qUkmKWe3L78IjCkSqwPGqvW3jqeUEEqNDxoEHvID7A3oDwlEL11ATOmo1y5NCZpb+NI1B3oQnRUB5Jtqy11ULbXEe82iyferikM7G7Doo/QJvQBQppAHkqWX76TZbvY+23QhF4bV8NB6hjTLnxqVq0kqxXxROIizLYGx09+C3H2vlqYeGGROfbWf4obHeo5vcWkCIbRFHLl3FCugvqZmesp6c2QhIB5pScqFDAmye6touCgvQiutlWu1RRx/4n16W5G64O5dRZCcthb+jSY4zpnT5Bj1wDm/mGuDJjelbEgth3weSQ8Io3mjurHmHel9AUhuXCy8iEJN8Gf4c5QgPv1MzYnRGRPfuiBqYCgeXYCPvnfyuXcuxomFq5GI0pzxUnET6l+iV1+Zl54Y/ZxVkRO9UCMtctjGalJPyWXdlYbGkQF2GyJzN1CmSn1zHwiSB8TkQLdtUtjZnXtJeviwRn1EpP0OFPfwzOUHBKLDoBVYrBy+DLk9XlPHg0MI4/ChDGgkK6J2+3lu+pYcRA9LJ4xs6tGKBkRX71qt3shABcj5EMZyjOqZwVIH/98XzSimXhUDtO90BQQPlGWNIHcrz6veB3y1Eb1onI1krhWAxw53tVy0qxCwg76f9fKk6Bvlerg6NaOY3JZucPywC7DwUfZm4eU1eJwuDkRzYWx6jD6WFrgflvIrnR1frqdX0bgf6KRbXKgq/MP+I0vuWScM4e5NueFUpdcgTCPpCC2SL719t1oKRl0eIgxmI9OTbH0Bu1+4/QG7doj9ieXXI+x6tIRpJBacNLkOO2tZmDcTa9Uw/hBM1TBrkUEx4MVKN9jAobP1cCtRm0IFQf12ETgYw66YE1neXYNinFNppLiacSxDwaX641AWNIHsENduS91d3uUOn4CdmFXYW+VRIqCdhKUoZWN45qEi9CgtjZuFAH+W0EyaBlfb1gBehHffQKiGZn2b/0TzB+f3La5W1HALFgqSb3GOOgSfg9FblMdHLd7sVq+rzDHXFj107PPiBWyKMmq/tLbt5PCZ9WYfYIFRJmBYMg8DWQLNTInexJSxX7Vu3OU2NnffbchQW/MJRVCiUAku9HxS/FyruE2jG6zSPM/z+EObf5+6w/YPbs/gowHC24sCuy/HTwNf8X1w2vL1rKP5Kl3RIU77CLKG7EQ19jGb+YhZzxy+1NDQjXTRSyXeKCvQmQfp+ViXNrwc08lNcY64J4CjT/1VwBSoR2kPTRjMOX3OhNq3uXNEPXQdylz4WXNI3x0Hr3NM5/4sGZmz1dOAp+o6o46iUn/xTQCZdTjoaLJTaKvH8/dK53tLdzKNDxoEH+ID7A967DBkmstA46016yrawyvVTN+7w+TQi38eGbZvOAumgiD0HKfxUdL803k7lJe8mHFedMiQGqz8x9Co7LYKYuAjhX5SOmH5/G/C/+9Gy+Qa9LSpvyyflqi6F98AZ0/B1SlwkDWFFGOA1MbjP20YFVVyiuScj1ajgTMSW8T+3zgXnwWrGttrpxNpd6i9JLtlNjzwnpEnOZ248JT43jJi7yKt4JLaegPUCdmPzEEruy4m5MczeNiJlk/HGTIk0WtCigLm/w2BFduzfF0nOSz0gf/pTxqclTgOlHBpmHm8DlcXAWnNnrpo4uqgDiZbOPh5V3bSZ4jLuQW+S9RgOTW2/jCzAXa09t0I7hV2GhtX+SzIAKJaX/r3dAWjVr8nxUanSBSl4bf8h4daEKIbYv792DEKgq7gBolyvJ0DcmAzDT4JrdMO6t5aDsI5G57RpmDsjD7qdt9CC2oE2TjuwHWp6crIqfQsF/z5EFjKW1cwDI8KoVXqvtMf0j42tFDVNAp9DnQOLn5JjbB2y9Z3OYYFi7h8iibc1XExCzRVRk5L0KDAZFVDfzCjBbC3/QdhA5tc4dpcogzdrVyMFtxyu09iE3YKhsv25ZWMXRH6c4HLR6yWK2PbF87mKxvlp7QmsKsN8eos2H7mxTPYsTtXXfiXmlvyW3ZFI7ah+1mRGlqM2DvEMxZ+PkwfzUJTXwU09k9hlXmj+pbZpDoLmm8CKzdsgySl0FkeJ7doReDFwNVq+dKHDmNgk8IOi9c2EECcgrPKZIKZeMgEf6m1MTbsfNzfa+aiX8VqURX6k3Eu7SyImV0tlhw6AOlgc9hzi0/HQGLpKJbKGrcARbFPwMT+j5NhDzCB4/v6caksu16Wfw/49UYQDNeOAAh1+i+dCtNliGimtWTiPdL/nOAW2Y8inzhPywfdcUVkfsXCDABsfLLKvY0tGWe37mNxw6qeHsihtCgvfy3p6MJlk111+RRH0JhIuEj7lpg+pfTrRPN51pPENCQmEnP9ChoTuK0VB7AUq6RE2iQNqgpmyExXnTT2fc77htueIEp0M6zhUV1TUtSLHaN9+pUuwq9PgMBsLcW805CnIfb9UjDOQlJqhO4eL9VpBP4yqvgKwRNAFk7yPHxNWtYljLeDRNvSOYvEun3p7by1usdtTmtpymNpQju1ePxtE7dhxw2kuQVsO1retekj1WWkkOlqv3thCWfrgXBNUD+hHjsHXzRqOr6nFEbVngqnUEejAvzJgsW1dlw/KjToH8Ey+wej41iEd5t2DTq0j+jRW+6NDYIEINID7g/wK/gacJzadMaCVmE2lJr/yoeM/BcreTT+JHgTzarwY5MWWs5Yi3ZVC1Tgd5AjL0j1premfZkMkJfvEAiM6ljJG5jQJSKEy+UfoEe3xqEw45hZ9b0RhWwU/jWIfVT29LH+asWGp75fRJ0o7hJ0mH6GuJ/teGAjCNufDVsCzMp/geZgUw0FmMhE15BNTTIWyyQ1hSH7+G17JzYr60ajbjzKuEFoiKAHz891nfxTeJ2lwPmh0D9cN5dGCmB5QRCbvt9cV05+xx1j5P7PXCO+9XWSVg+Ee+FA6BSqBg3nqls5OYXDX6Gzy0XqO0HlUKCaimkgiT+/Bxb+TqPaCbaQIETHtVRvZeq+jQgyoUb3nSUVkUx4AqXrpBmtCBlEhyso3Q7esZiJ2Bb5dO5xWcg3hiyawwMi7eY1XZOAJqS2/LmBwpuDjJvwdWyKs5F8Bcay+mYUAtVXBanSAUSIHKdkgJF9v+pnCTVOWHP+crdusRvt4jQcFUXEmOlpuPl0ei4Uy2YiwUrUgJ2dQV2soVbNhWT/eMMmROlifGvc4GU0CvEKBSCVg1t7xA0g/7F2TLUGSaiqQsOTBereVeUdTPgCy/Cyx1AqHXfOzRHadijbO7Xtkug206B9vo23islioQPnJA3Tp+2DHZVfSNYDT/xK9oloZMYC7gsUrXBuU4fnD7u2D6WgqigshMK984eLry3oCDyyA3YyGHFowUrwBH3oVUx87d9miyR9Hs+DkFRVw1QLMOYxPKED0rw9/N5fOfFc/t9mug0iq2Gn34loRkCI4KIi3bomZvv9AY5MixDrTGYFbwfX6LcqHOcY3+1uH8dx5z7ot0WErY3w1uGR+U+Nw+Z8PyLZeY8AcoiY5K7XghAszHBmShqYB+PF280+0OiamvvUvzkC7Ytj1uCg/uPJwi6a6xZqtsy/XqaGVw7mbtNnsyDW62QLTq0QU8SGMbFTiTSVKdXngLFmv0XHSesmyxbbvOX7XJAI0JikXmEbgU0nVvI2TiLhm0gPxwQwQGdLTEjx+jly9YiutTg9uHx+pcTt6DoEgozRvyhVxjxI6y1dOb5P/2HDk37brps5ncplgNArNAFcSkyIAOqmpchV1S5tOaa3KfqGhBNyDbdukfRR3Uwnjns9l2rnLLKNDToEIcID7g/8G/wU9fc2eOHrWZzl58i8w8rRVHY2y3xiIg2fA6LjvNUwO7Xsxf2YQhpRazRFOFjSuy/EGu/6ss+7NjXtJNU1yEPJRUcPXhkhrtw4hUWFMJNF4cRkmrKqvHB9kwl2G6/eV1jI0z3s39I8GGn0+s6bDAXkIFXf+HF4xo3syT3ejwrl+WgwUAtJMjWErNzxITlSrdf3awWdrnuON/lrIdB2Y2+LOkfGbR+u83gcOKI5CXgIOiTtuNmymGOJevleDKRpSY15q4zvnGMocP2nWu/k/5U+UDSGB6eUv0iheYASkLM31M7Lvacx5ng/KqRZPe6ULbAoMiGrN5duXPZSEswQEj2CWCDicMitbP4YVShV3BmWDwyEi/mCulupAwP2cGmVKAktoPqE3Zj/OhU1dchRP+FPSpu6aBxANM+wDc8bOshKfWWZqDWk3rnpyYwDUa6LKSe0XIJpSXLgKoHdpG9ybDZLPoI+cB6hHqOlr7ssSlyIliUIno9y7MNjSoHHk1nvPMYyVQO8TCa0szqBcSZj4LWslXBIG4fv1/DOuPPOBeM4WRaPVEaVC3rJR7qD64IXvOSjZmrCYMDQMzQnjSr1et08eJNuR56xniAdWJHFfXXN6SX6zDhteMRmNSs3ollNGG84YxYsO/hBCGbx/vse7dnotWFjf/RWejhKc1oNQywMdD2cxq8ArzM0LCVv4qsGwm/y7HYfQjYVN/PfxnVYSqR8UFgR9RLnv6lHmLT177GjUCvNC/EFGbHcveTT5WAQQzkVyeZuBPX0oE9Iu1Js/ltUKSi+JnCxwd+yOVjzVjecxjGIUUDHCAJwBNWZxsgW9oJlPUlJjsuF00HYorNFFZJOqTaWFvMX4ik3Q43/FBCwPdcjoZllRxZKjS1My6aDFS1u3GA467DYzFDJldyUb2R5z6WcVSfRO1ilY3PNgN/F5Ym1yJeD1+u5OdKmUva83e0ZkA3Yrc7d+anY/FUoCMfe2yUgafyJdmda0T3oH2bO9ObJJMd9u5cNvaVlKMb08RQBux13BkAodk+ypETDfdiE+T8zNo356BOIHyp3cPF3+ykO/9fuQO+co0Iy2gneEM9viiR0kAWAL0HBgNfm6JFvG5EVlyqNEsIEIrID7g/8H/jY78rRyplfHEMIf/MXghMsjzfbfXJhXBPk7SBdGoFnZk80tDejYSdp+E9i55iEWMW8VO5bHJIAxI2NN+xs/E4OSl07ZoyikFjoI7lbiFhTlcFChSH6kbHlTLOUVdu4tFitUewfjbt2OKjXL8ZKfbCAJnhCjwHs0uPgWwRWZsqs3ex34YkYT+ywMwMOLyHvvE2uMfy12ZScNJ9YOcBGpPGilsV0fEzKSM1rjDCM66Tw5S9ELS2UlJBjAI293FfLobwSZ/8QQLHyIDWIDi5q9dVvkwbxHTSYO+OU9Lu7w31CspsBr5nAeXCaJ7M42ho18ZM9hd98Auivk4mORNBWRKPeG/G4UE64xDFKePx8g0T97cQHL7V0H5Ilih+4TdZhMVV10hjU50EALzgKL5j5kfbWkPm1NTijIRyQjUqSeDoC0xqAXh92YtvLyZ96wF5DgF6XN5BPd82KysoWu536LuExvA3K+irhsdiZ7q0YMlHIXGjGibzBmX/n0GOIUwibvjBxRzphkV2ET8cVsBEZ3eV9z76nN2r9U68KLW3p3DOS0DZ95sA1A8SBKUYOilCisuY0UHxcAHBFC9stMVrK6O3P8pmjM65O+3nbLHrr8EBvW+G7VvIga3gD0E5Gua16ahZiZF6l6lhUpjab//CDq4Vo+eHcGhvLMWv2FC9ypakdGYI4QkdHWOqMyH7UwhFZbO0TJeDhIGmG67MAcB1t6/eWuLmMMO4+HCExfjqOJBd6silH3m0KRrWwG/jNh13GzSi0/A1XjP0dLDZlED+E7EtSgHszLQhAwUpSQtXideWr0J9LDye3Hb+eCUxidxjqRnO0nevQhNBM8WSvw5ps+s7gHH2R42tI692flMLZ6DI+OycJHPISQ6a4Se3jVQbyj0tVDqsq0K/uAlheF0mrDrQ996M71phKhHBKiaAMSuaj5VtqxsdVxXdLqkYlD++AayJGsjKrZ4iFbhcIPsMxhNyqBULeM9SlE0Uqx2qSLh/46lc52AuTIzUcyfXs3+rchW8ewuiRx+MuY9eccpWdd7ZltL+r7gX1oL8BZ5XO9asq7kzybzL3LKj9QXLzbSMID7lhcoGRM3sPV8ZT7rPRDkWmS8C6Bst8FmdGaHgduGs4vvwv6B/X5W7YBj1osyprRVvMD9nNCSACl70MOLpAnWOjxh+4iQgNmbakw005nyUmaiamEqpKC8T5vKB/naTcOZ5R1jZOSaS0dE4oSv5KNci+AQLElzO54j7RJKjYKa4ZFcN7RSVOQ1GsvSbDtdoOWeskLLohqm+v6h9JzHKp7tUdFC/XqOEpHIAi4Fp/88BZSFiD59/g1zjYr5R2kvt107ZgVK8zIOhox1kifRJLpNIWVd4eYmjElLNuE2jBa84jqhJa+19iaTd7Ql+s1u7TsLBsVGjoMgTLdjRtGIBAh25/lGbGhBZjMSCoVZi0QDEmE/yyKzIeJYjWUjgwVzOXSAC36wdH/WwZEej69w8SJnhrekMjTUpbTA1KPnv0Hc4PEn7n+kiuR2HhlX9uGjHYF0Ngzg/0bfJ+jgaXw72rleoAufMiud86NAGrLTOB+Ua1XFFNw5gdr4aNDyoEI6ID7g/4L/hZDlWJLgHzV2KvEV87eZTj27rdEokwvs3ohtU3FrQTj9dDzCO5PgtZhYM3SYNQptTMWx9EkOPkXGPOK0v3tSPfWnq5HPAHw07ScRBMuRjTXkbkSDdlWosPHn8Kc+SD54W92KbQA9Gb5uegXJouI+QvJqC5fCxjEv7jS6Tv68m1W1myLNhL5gpBU+ZEaFqDhqXVFGyo7SLYJYO28EnzfQl5QSRqIS7VEcPCSpCO3loMrylxVQeKvcPsP/LsfVIl6T2Ve7LSeGo4AlzgXz7KEWvE0/UFeBCCYe6fXoW0LEA4YhFgixSiiXHF1DJjmsGQwcV6DaoDrwRSkl/KyKlgDhWDGEaYJMwsnf208WIRu194ra6/wmU8KmPXWD7zWwRKnpnDEAydzdwiZBolDeiyVw5IFIS6E9xW/fBpvRMT0RnR2Vt7I5qM7NkNtrnK9h3TQAuW+IlmPy/iBe/MLb0Z4QrIsqr8R0YHJnW+uVBHmIKVgykoCXPg45k0uiEmxVqB0gtGewGzCbESnehsnf0pt9yifoFrEIrHmLOqj+2hG+cz1LKGKPYAfJGdEnGVBLbbO3xKM7ywkpU+qzjLZJ3WTJ2HrJTTDhW0GCPlfnAbrKhDAp6CV1VrGtZEwV5wKHEc277BP3EuIGUH1kdjGfQJEaYAoMQ2CrpLVRrHEN2jBD6zC7g6UXQam8MDfC1Xw3Yvbi7GWJFWBVdK08uQc2GzuhMyEfc0ylYl/6Ot1xPfUc3VbJrcsXj3+P36hmHvJl54a/k+HcGdRfsJiC4NFwlcYD/VSfePf9esoRVsx2sXCtfEIIWcORhM8uA0o3Yol0VSmm6Ncd/wmzcPbbQhmnzRRmIzFRLYidu2Tt2As5rVsZ51IGI9yWS1wCZo1luyjMzuZApI2Lej21WKjOexFP0AmDgI0iGM6DOkn/UKjeflGgWws56e+1i7jTpHxY/riTwzkOnOgsT0KrNpD78p+3bQzGIhfNYpjV/YIUDtEFAOI7qJaUmSPlsRnpCqsAkkBrmgp7fC3zvOackHxy+fYj/QdI4z8kahcv7nHgsFZYdjAn1cAFcm2uaIJIpTjUFaX++Ed3sPwaUPbfC+ihdQTnWxHG2hSVCPPOmDrAJXi8nNGgm4r6aug79mItwiLNzus/6ZxZWcXOn1zl/ObYHeR8iLT3GGYSQLIFCGNWMLVQXJ1czAdt37ZD+o6psGtXYTP2t5Elb8Fkr+xTi2uuCnlFI/8CiX0OdDhSdwXzEBnC68uneeymsotc6fdSgrtXF0qBBxYSyyjQ6CBCSSA+4P/Df4NRvEZUoEQfL0Vhkbkoupe4mD/L7Oe8J/rnu8JTtx/cdCughKf1YXfIjMwhsOC8zgTsY789EQi8TtT0aTmnLsnZxWo7worgDw0RRtoQWrSWbtnq5HnQ95PqtLSmbZsRDPY5QO1hgQT2aISel0UO6f7xXFwcsvNwFClwsOjp8ttKPddlxaidLG+3O/HKnhstYnQcDZ5JsvFp9yMSOy713OEQS7aSrF/1kKhHcr51vOF02+fkBs0BLhsgkt7RE94oLQNp04fTN+MbchR9/4e47yMEA2GoGFn5dI/Epp9MSMdB7udKjYnzgHbb0qE92ltvHR/8iAlMFeTkxIPZGaG7N8IbC0xADgT0CdBEPmAuB13oQRD0cSzSckXy5aSulsOAicMryaYdnUJeEOBmpN9lKlpcUfOCNW7ezsaL7VHZi8j+/H1kZIwkXqZGiPt68VwBgtg8PoUhTW4K2cAibd6VXMMKpO4BUYYjmIZUkRa0c4o/X/9Tin3ouZF7PIBxBacYOt2GcpE+EoQEgEaFDsJuRdyr2Gwoc8UTAmPkylyJ2E7ETn767osY7D0xhPvNdAuVYP/oLaw7bVWRUe06SF4z8nYlGQQ00j9P/Ma6TR+5I3COPRaAJR7/4hhfCI0Ab/DzMV8g7IgZ64V6oLxGfm2KchKQ3zBpGbSZiK3qhY31N7AVqmvFXUuUfRbMD1RdwtzWQKdTYKIh/uoX+e8rbv1r924k+wBv50Pa9VX8sVGRdPn3OZmUiKZfMYyz2+5ttaYTJmH5Ng8VhhEjlPyoWQdFjLfHsRQ5JNzMUZsj6oS7oBMhk7lxhfTedWLfqnzW/fJqyiYLk03fghSCYgXE9+lkwqnmwChxG5GOgWc4q+tmDMR9MU7XwRVfvv6d7j5KmJ+w1kmQ4BDE221HsVMgJT6Urc1i2+CNy34Selcu4I1ywWhM67a+m0a7Ao0WqE7RoWufeeDDUxHgZEAK1123OCUCkXGg+69dg/EMS/SjuM6L2bYRYV6ivFzrxXwCyCqwCxFog09t2Brympblb72bgA1vepZTzk2ALx50NnXsvgOSdUwtnn2dxuxkMRbJpyvjaI1qSqS+LzTHRutW57XZap4Z9r2SkbFd3vi6uGpsiOHRTs/TcxIYgAB6Ay8ftbaNpDARFiEsKXEENyltPxk9urIpHokyLCwX7OOvCJ53WEtBtkOVPVou7MqAxjyPa2HKdz+/5YnfctN3NuNo0OXgQlggPuD/Qz/DAe4V6B9jeHacKd33L1b9/ML4OsMcZAV5Ff+0oXKn70gtAiGNAJJciY8/3v/Q/Xw2JTzLxuaRbjiXitEMoSRNSQ5+nvNWG3mOYe57KhG5oabH0/2IwnLZsdjAHAIIaeDSrFv2VaCwg62mHyvOahhcy4Z+eU2KeIWb3ia9CarlVaCis6vN+xdPa12/sSN4tfv+vrA9oBkqvyqpzI6WXLqLzrLhworb2HqKS3Cs9P6GPHhDDclPK/LP85Y9ulFI/nOJc4f+2d2xmRkyVV5tM6V5JBn9GFNdCassCuxH5NmBRaWki94J3TjwB/CTniwDeXF7YJ8FSm8PYGNgugLz7XMr67GCG1MNOm0w9PCk7dpXr8v22WBB8YUFKHSNSN2VS/sXrYQzJ88cYie9dyLg4s/caBiRt0kAgLAXXT53Z5xXaveAnf20gSjGVSYZnkZRkDMCpduiBMBlK1oOfmv34x+LIX2lUabRIFyw/BF1s7SjKs0mmeAdeB+VUVsDsZip7/QiIl+3MQc8vhUBvrm6o3ViB3mmB8eHe6j8mJkqtwJnWS/i+B/f5YqxQcV/9qc2hkmnOocxb7L1XkhLSw5v/+8s5uux4QkSStZiHz++QyfMkt0IAglXW52CPtRzBIMx/h7tbs1HysLchgk65dZYnzbKgLWu0K899BL8nwL4rkLzTjMzD0U1trcUXvHZWJzwHew3HihNVeUcjsezbsxq0/+CJWzQYuDDIkGcHZ1sNlZZeQSAAA0KiHrhn8lSe/OVOmVNgLNxqU6RLYPIVAtBt5BbGGs5trAbKMclpS1J3I70GXJS0rb60gMv/BjEMca0xbUk5vmDNOdcz6jgM9iEbnEiNQqTRqb32r2byambiUk/JM5WpN6R61KlK/C9Lw0YfF6bFmnsPjVu0KnqET6fh9klwtdz8Nh24HY0/wkdIycPCJu5ahCtacDjX4Nz6nq3CPLyXtA6DRXDwaBSBP6W80PlgAC/h/KTER4HfJhlK3JUOZaA/jh714sL/fdfCjtiiMf9P/17V29oxOwOl2QYvaF1xD5RLJ9Ez8hDxBggL39HeuCcGilnrQRIeH8zNXIISWDxFxKX6WqhZ2GEb7e6xkVPau1wukcJcDJTtBe4znreUrDPZqL7i4tnLoV70wWtXxnMEwloROM+PY0pFF/Eem+D1/PMPNIqRI8GFmvXTEK4TQuZdvvNOCOPxK1na6dm6NDoYEJnID7g/wO/g09gY+xuDwgsYyzxhouEOYBM0RRyiBCpsbBLBVEE3+vA2GbZf93Ej3DS3St9vgSp74uBjzDp3KCayG4/9ydcDKy9O8Gzzs23AtjoruINPffwPIVJORe8pXu7YXklBR0jNcwZfhZJUoEm2LXS5uh0JEOHPEll42lUC+eZCP9aBQpX9mqEaKIDd6AqG7wt4mo+6aDtsLk8TRpaH9hqPQBNoaCyBvcPOdB9X12hmOfwbJjKN+5Fc5jzeYiqFf1fJZRMM3vrsbH36g+/hStQiRxquYrpfMwTDLpOAETt7d/pBiOUo0MM5wERfLmowTYhxMjjuwumY0cD9/QbPizkYnDjx+Cym+5qv+MAXI3a4ndj+3q8HMmSKY4Sxl3plHYBgJWY3X12nS2IkEg0WRK856fyQJWw8N81DuwWcIkUzVdfUZ5fiX95hQcFuuTnoj1WgK1A5ZpoyurCtlcNBQp5Ow5bV37PUam6DkqYpqCEHC4XfdXt74b4e6z36+dFEYCLuRQ/h/yxqh4tIsmnkAXu7JPOoH+mXsGOBe/H5IHyhNFghoKXw+fsbbMk+Epd+CCQbBSNC18qBKPM8I4UMdVjEtDHwXhDcsrKxDqN//I0z1HVM63dMLZ3Bm9KqyMlJfjvud6qSezQY6geEzwmUGsHPSPbilXTssKRVnqBzpY+SnEzbok9eTl7jwSZyxSFPeXzKmGHAM/xgOeZueOP+hcP5I6HpxJFt8Q5RMY7TqBVNF9RurLJ8fwD9FKZ/nOTb5LhfWZdkbUjw0QoPsm02X/uL4+4lw9J1kk7XMiPyl/2tf3fO8uaeZ1BF737hg20xmuJQCG3TXjy/Y5r0bfERMTadEqA2kyA8OxXhYFF6qdnnjGn1Lmnibm0v+aamSVwRPgPEIOPU52NgSvz406XO4oTF2kKPVFUkQ7c/L9rqO4zATK61w1AcxiGbaWnuIsatiFNXKs6r0Mo1QeH3MJTNwsu7jID5L72v0+5K6ogn0SYJoPiSO+P1l45g4sBJH/XI+hVUVODN/g3U9NVl+yDoJa7UWJ9FP9s1FVLS6nj4u56HH6NC52wRN/4+NW0iscMEkWZK82pXw0xP5rTCcyKI8pjOxzVvfomJaevdtaWwYyzSJ2nmPdXbmhW6YFjpT4x3Jj2PUa4e5hO46hClfOLtwRjAyhgQgMJccOwQUNykB+h//X8VIBti62GjH8Sx3Hmg1xyNi1XSDIGr9SRn0wo0PVgQnYgPuD/hT8EEtbCOagesq10OC/wWkirEVky8i9VbUzp+bmkHk0yArcGv1pWNhAa/jHJX+jI61HwzdM3h4hsx53Y9mY8XUs7rJEUveXUnqja5Jxu0SPCrL6e4VeJkWAWiJU/rwh8CTtavxVcJT7jLAPOeIlrRWqg9UwieTYEsUORedVoiX/f55GHlE5ImNTra2mc4g1K5Jnj+9C4grfJOsuhO5PeByvaajf+Etvc8xIFZxanHrNeYk0WqT+5JOjH0ocaEhNc3JNc0IaeItpYdyY9zE86Sq6q5macnqB3eAKTFMstnd2F6Ijg0lv3Je+5EpFBeupQU5oxXkcN7wxwBezpn1Tv1+VncT3JHn7wmlgdGesrW/+5e5Af/nWg6s4rEdDzrlTAy2peymuf4989VXp5hoUI+2Mjs7e23XW5usqJ0MvjYiEwLTEjV5ZA6YzYm3M8kGQhFJPf9lZAoy9n0FbPkgbiI+KJSG8LDXTxV4NqHmWxGiQZweNl8BKJZPr1buAmo1vW/g83BYAFohKaCYHvpicUa9XYhjKeaEXbUEQ+z1kGbO2RYYJO0aQoBfSy/3sQ6sCuot6YnkhPze7qHwrtmKBTqsGTcUw8VisQ8TA4ivcNya75Z3pQ2q6q10IuuWIlqJoGInXAuB//T/P2qk6jNMKoKImm0VE/Ws25O6uLdMtGPVExvJTOS/gKsyjRgpVBLoV3AznU/HRrewzHKpH8JNCZkPxyJ4lWN99I8NCSYSBQAxVrFrkVlEiGltja1xMOq6nJoPoBhW4R+9yctrA+ykdXrm3I5s1Riha8GT2t4QUmPgI9Zu7hXe8qnGfNZSRb6UaNr7LJoU/Y5zeV9BskU569tkoWihWInTUsqXIeDef2Ing2k5KNYh16k9VyG6retyEVyAt3dv5k6H3n31oCUVPAw1mtZujEmc4feB2DMnYlIVnOuwmQfeBEj/5qgwyc3a4MGVVmu0PC3+KYKF2lTSJm7zUj3AUHcTZnUiQClKmox+/7t+A5NcF4iMPGBhZ8sjw3bk/nM2TB23jYRXqDAn6dP8/CJ6mCYIjAr4NkD1fRWb4MnUt6Ogo+CgUDZxnVcCgEEERDopknLz/QWs7PFbo0/W2Rj+6lb5Lwbtg2Ztu7eMRntGIY37upb0sED3QtmOt+qwG6ry1l0kOkOLXpnsPpR3pyaoidP2rC+iDLdq8yo4eEIa5g+9+5HTwQUvRM2egqTD+jaIRg11/hLVdh1E/2fdFu7JksKlshu/i54oKItisuUwnzjTeN3hMcaqAbhi4isfSNTM7qdzmNrnajSwEo0O4gQoUgPuD/A/+D9nwX/iu+HLE73j+hz6gwYcrwrY34nwmAoGOmtQRjaDae7hVMVn2P4h/SarLdbPTC5DpoMXus0nxMMpgiIw6pV2Fcgcc1ega/zzPOJ9EmaoAPEdyckZbwTv/+7D+JNiZs6xjKDB1iv/HF5n5ELyu3Zyx6uKDCeM+r0dKeWve9Hc7IIjwh1YyCIH7uSlHGPY24u297uePcPCExlUfDWNIUxwk755XaabGdl0X3xGEMhN67ajK6MArN6KEvYIFkQyss7Le+mM3N8s8XHbZfsyao0eBmVstGTRuhcz1G8ka/5BOYxb5AF/sIWZ9oq8Ef/855V3k9WhywlpraPYYaSiSZBCHaA3s8PZoQRkn+vlPXYOhWYiAi/KIDxWhHg7JcMXeweYyE79gP1w+aE6oMD9PK6kPZu/3k4ajCUyMXtJ5UhoAB62oBRiwsWLHdSZCPu13KeTxKhp7EMjtghAXmDszNrxg2APt/A3TrzNrgxm7AboxxgBQ49dlGgSB2txNfXP081szCGvFuzhkzb1K3Qxjb/0GpkB6qq3ku5RicJhnl45QMIdCh8lf2MApnSa2iTcbBAYAYdcyC6aSm4k+VhHf6OYJ1sXlE9Q+ZOhuVVVK/lXOgksW1phx0TAH1B82+ApdHOjZihBpl3jF50Lf/4TCHgzyhhSBqTlSnRYwkkv7E9lDV4zGhnVz1o6d2o0atRsx7fcZK+hoQyioRXJ/B8vW5Lj4suhnmhVnuInqnvnA9NHtJiB0FJ2dMNKnZGGKRynx3yArp+lHS7hJEyxjspOeWyi3R7Ha1u5jL6gVKj6Uf1z4L0tX4NeKXG4sg90oI0fzfhYixM7QLn9Vrgkxx/nsA6Wv1jA84XBWr8YkdKSPlchHWdqEMcEAPDlauBMr+8Afq77NOtKf6FDZ3PCUAauWZDnZzw4wSCvms30vfbA/4a/uQtiPMQyXi/CtERlKTD7aP61NeTRfWjjGIBz73aOJrf6X+82St/zpFqSJ8onLOdEtjAidNLOxcfzeQ7BoGI7E044KWgr/rlJgezXO7zSnuaPMqpW3V/bx5guRXGNz008P2KJlOJYhj1ODL3jjG38dvaCBVLvTDi06NI2i+PYw46P/MfvMVcWMiOf2EfYTdKGE65Y63g48ixeU16jcXMGYwRmy5HwnIugFiZk++qm10M6NsAhLildURqowEcd6DpU5hl5sb2ontC6HjyvbZFyGVtcmCTN8MC8QsEePPjyXkolszm9GH1hLT5anvd1xEqNDq4EKT4D7g/8N/A7EVBr0IhM74qzBx5o+ilNlVwxvX8PRQRWeqbzeipIdx5rz9gACmkxlfOisbeMYWdBnf8Izm+Vc698SdElnGY5GSwgIXBRxEUg/iqypKaKV6WCCRTrY/2wRis3uD0ecMsR6JJ7HkcWzWo/EdeZP4Vhdxka0yAtxsF/8jAo7rzeXvAcHry7LZEC91Hqh/i0niwS/6chf2xV/q9DFrkUtCYQZf+hgWTeuGYYLa9kaHsy1+Yry7sb1L2KO+EBA1qtvknUlZM+xbdZXbv6z32IVstw0GwI6YScu+VggurqKizrxMwNXW6w9zLx7wbcKLr3l3J9RnnP2jTKaYFRnjpXeRWaqHYIQUr9KtvGPTMcjhA0dYmU6Ec0fy/CgD0MJdJz0iJ0l7bBcCuXsoP55IjffQhg/DwUcxGvqShqTRMRL3wKzd7W+CunpUW7qKeYHynVEpNHW2hXOkrcP9ZKcokEG5WRBtmQDc2J6Gp2f4rqM3RT1pCDzwoDU9cuhRoAvvd2BwIioetr1K9CrnVuZzmRm2hPT9aEjCZBz+MKiQ7ckeu+RsZ3Nbpi4L44KLSXPl3SimUnp6Wh9J5pE7XLLTEZvbdh1b8UiZ7F5ww52PhUWiz9pjnaZt3b6iv/nJwnCrN48N1mk2UhUaMfCUMTPtg1QA82zjk9ULCOADcryVTpUDvnG/y5Em7A4xK3DrqU5GlTNrqmZUJd0RJQLk6SyZkmqgHXmnf8WwTm9ACfirXw0axKNdw/TwpissyoqRXTkLHCgJqADxOxor3Ow8u/J4zKRDhr2M9kYjo3COl06q2CW3JQouNvqSlhFER8O1jdcJeZaao5kFqkH6hqeAmeLKUycnINq3GE8O7S+//+w3/1TjXP51FOqcMqpj0PDgYIlC3sFdH/oGYUm1I4ul/eG+nB0F6fsv+n4NepN/XKWj44DQVTirCJxlXyYSoSbkvlozBHtMXPKe2MHoC11Ac6YU9SIiAOPQgJRyEU/9f7JQo95vYFQrFZacjFdRhAcKC9+ldOx+GDiZobjwsCvRPt7oDV7lexK31yxVquuwIc/Q6DC5MCV6QtFecso7enk0aBEjJMKObOA9k65sTc5AwgJ4q1HFO/IPxvrFoZiKUeYCaers+qmUXYvwnMX1v8fx4A78PZAsc1anMO0V//8+mpDeVgIpoRWqmkL6VoJpyO0SpWK1bdfLXpg56yQaHPgHTF1pMNfQP7GodPUT0wSPScCuKHP+Mn/zaNEdoEKjID7g/4y/hp8SGaux6pTtoNzEgifT+9teHzaGWZiudumTwtsE6m32AqP28/9/CiM0siRu789f9RwP8k/HSBIEDGC2Z1Em+AuBPf6LD6p7TGdTDHMTdgHDkgV/Npg8vM9XSwXpu/55zrssydC39eVY67EGMu7aAzd0YGIeOpCNcIyH4LN7Hf1nAbA1rJw/j9Mx74agGG5TTEXe1Y9j0oHeVVT/GK6kdZi9rZJ8RwfuD60W2QHp9O4V69bttheLrLBAN0TiO/q6CkGDa3zevGCFIOjB3Vi5P0zOAQFKfhphBjIMzhj3gl1jNvzMLPYT8680BEALcgJBIyJmaVEZrHfFAfh6mUnGoTmJPe946kpX4XuWxI9qG6ZJMIsoFVcyHNchTHNMNYo+xAW1juYz9HCJrLaFSqb/95+7Zr6PyZ6flolQNSIVbRpBMQwroT9sKdJpnO8A012YrBBFXLCbGdj3cNYzLYzzB64OddeaxivJ3oIpC4uv5JCsdsltnbnX0niQDlu9YigxodhaK7s//ai5Ka9gGakSetuR1R+mscndf+wuET+5jQDtoOLFE2b1NcUziBApDQBAMgkUdsh3BhTtalyf09Pr2yPe6uxz892d+2iai8q0zy5Wg+wg5zzNAsY9Ye1hW/AcJ375bkeugXaMBAbn/AVxS29wZv+sWesXz+jYdLD1HqmbIsj40IqLiZh7hNJ/4QPyhuCN3n+E19fKKUJKFMGdgTJECrW+2HBBlrNc6lJtDuGrlJy+zmCUDBlZo6ANGmZglQkkEqiCc1K/9QWX0KEkkfgwk6tL5qNMkd7eDCliztdc29FzFJj94gmphwYMhC3mkeCdHGuYZGQOb61qAIxDwa+/pwjzhM55gN0auFFyvPmzVLg4ZTUoL+xL3EUbI0fEHSrapAiiXO0f2s5bksObrucabJgW8xwAZ7tumyKlEyXWQy8nc05CF1J/SkITzuGRIo4LUPlAP1FZrAC5qiBnEbSTRtF0Zwfmsmm6zzyotPdqO2Vo5SPpClAOaQBhASMrGx+ice++dbcP8jx4NGFzAhobV40Gi9yaCuWD3OK/rIpjiyYzr4x0BvqTgK3yd9Pze/C2mVPNNq2wmv4XDWf8SvpF2piKh5G38vWJDkegEfRl+NSurfNhZ5+StFk8q9Umuadsz0ztbB9+EKzmaWwRoeCES5Hnyx6ZqH8ihxe11cK6zQPO1fwB0qidEqPNHonmZSgfsfetCUcWn0A8/NFOFvoIMdVewxuDsNx+PXyKJEZr2Bpg4WTnS1jFChsHQnKTTXBsmPCwlsS3zAr83cJq9y2x830Y1mPJQM8/rjbpLIFXRcLVibn9FtGDLVhnYLumltzqmklNTdWa97agjgFu+lWeFVwpbPPRY6LlcbZrak9MFs7g8E8nxeHHlL+SKLIqEqvaFuATW+IsIa80cWJClrIMOsn4zZYomkBUDVwUQJmraHLASaU9yMLbsqyJ8RcofgJkngkx2W9b1wgvrOdbeW/qVPh3a19OqPaWxS/o0PGgQrIgPsD342GE3ROTkpLYqGktToMDwpopFyCuqi4SIjUqb1GgcqRmJBUHbFkxbzxrIy17U2wiIGe9OhPJSRRmq8JtE5sTwX4Rz0it40jcjZohMviUGmwv8YtjOvScWLSvDNPov7nYECq59F8T39RXof9VS8/XcZsxHY15lxQoe10+wWOClIxLvDE6QfRFHpMnu1X4Jk6Fd/yKJFu3ZOcGOkX9tNJJyyqmuocDwx8pBQGOoLOrMpaeKZzESjz2UNIArDRQL6ivr7S56iqnCg5j5D5FehMFn+ZfUdMXvnQP33HihMKEsFFhCIMqZ5B32X+rJSHthf418MMGQ+2yOtxeD+Zp3YACkFIHWk7QUP3nFyNYyk1d+nRrDRMHk0HXSlz9kHWZN7xNDT6qPCIO2g/VruC6mFdrbj4hUYUd1wMtddWXFEZxM3fRB2AKKtTNg9Es9M2HUAdvZLJz0WasothKPVTnZxdk/8X03LPhTg2mlxp9ZbY9XIpTq+WBxGa8YlCxf5kpZXJISo1SF1wngRlTQs0bG43ZE2ode72gOns9IlWHhuxb6d8MKjU0Va1l0CfyONvUzIaYabJGKoWWJY7QBHiKUirW9oRt4YlvRQd3RI7s61iM0L954nyCaG+wo3WEkcW2/CB44wHmlnHQRVmUrdeAzlWTa5o2Hh/cII98yGSnUzy+bEJn3ISngcJhHFCjvBbd8k4M1OMxUXXwV9nM2RcsTT3UwdpbbBe0CGpCg5xiZrhg2pQYn7FBlA4u8aR2joQp9f7gGDD1fuYor7/XQf50QitkZy8spwTI36Toy7j/2TjwbsXs/mXgj/+YCCFNzF/3DxPVGeQhT9UazIQM974BHKU2N9Fu1sH3yreBmOPyg6pS/rCB6U7kTuk72OHYAviZixIosYrGGaEkhTEZ3oorUu8wt6pSsuTVlRi8y7VwcPzFPYmSekOun+uqwfmALUQ+bgxsGlG0Qn+5/FUeG5eDaDNUKUkyXNq0reGoimOlKTeUnKORvgpHeFhqzb4KQWqSaimu0KcDmFuws0axruP9Mo57vvhXVIoFxJ/kuY6eAd2PdjHEiWwmMlHONEZovFsl8RA7Kk0/Bo6AzzRZ0uLjm+tQYla3JHwEqvzUxTf7AlLp4ovlhgIrfZOYckSKALHMRiXHM5vPo/xTsN7yX+mw9Ro2UER1sB0LjtamkixgkK+cb5T4KZFqI/gI61mrw91U1Y3A72HDH4HhMW/zi85U0iTFszgLzigdCPr2YxyIAMpzzvYRK7sMHgZ4mfBgUWY2Kzno0PGgQsEgPsD1hKQdtEzA+aPSES+OLQBpRn6durTgpeLaRoaiW8BcbKTRrZtwvVX+7Bb8XhkEqSImJAwIm28SdkDsN6HBFab1fZtOebCLywqrjpTRTYGUk7RpKvZvk/M506dTGd7temExNImmEs26HDhJTmcWNBLCDo0JC/YYeA8jtRBYEUTAYIK12ETuiDlriBiGh9bJrCIYRyhcJfRtfX4ngB47BDT2da5fJa71uozTVb267HVS9thkH0NkLRgzwXlLhzecw5nKTLntRemqOLte8wEqHxdIlxOm/NFJ+z+dPxxTSeCTFnt05hDjKF50eILVNQmaovg6+b3jDd7SNxjySWhCVCljzsQsI9/UucAIrbflFRwPKvNqfM1sPyWoU/R3NJfpuE3ilQNp7Fg5al3n9i3mS2Lm3F9zBKG+oOZcvpKPUTlpO8mHg0jPMWei9FQ7JnlJOoWUYrIk40bxx14GCNmt8we24dv2xaMa+rq/+1FW6TBQAZIMVzPlolJGq9GqWroZSmWIodOLdUFpPLodaewjfDe3lhx+f/Hh7wFkSgtWlVcioqsMwLl4FU05Qi+WCqGTfGmdRPUVwWTHFwZ1PfbEdijFMBbz6Jl7dtr/W4k651P27AFFAktfbiN+7287thC8vS1zyjaRG4KpTNWg00Cc4e2z1MjHpk9qFZ+XB/8PN3E7CINBaWHGUZHSb4G3tzX0zR6gkP2ukYkruXs10Ek3xv5Py8lji4Dd/TGoZUxgZtYtO28HjV56snxaQ1Nh5jvM8hajDps9j0Vu+pkrr3L0VSYJPq0ezBN6tJDTjaAHT22DvYOS/Fgo8lnTmUD9tSGHcw/HtJLHt7CMyWbGnOyZhh1YvQq4kVJh7RRCR55Wt7Iv6NBY21TOdA6ZGbGswG3dlT1fud30OrLv9w1/eWfLG95d0wektcxZYqfi5OLog04absYwK2pGpX4MQFVV416Q/6CkvTy5KXzkCoZGsgop0Ue8MFNf3kvX5hVjtSeSXk4twSB8/jAXnaGac89qhluCm8gNKwFNERHnA/hENU29tolpiamzZ+/jr77BlTyhs2Y7jI6foNU22v95GqIDJpxujr2WS9z7zVlk8KeOiL9KTIkIg+51rZWh+IreSKvgl62NDGrLnXGxAyB4yYT+NTXwkZecsLHst5CIb5cpNUei66QWdJc9JJ/i2BL7ZEC2m6QKSSaFcK7yDZurBWjYSaHLbQygq6/lIQWhnmqtTchz3mgJ3CWsRksF8LThp8gqaQABIir/+KDUjuU+xabOvDgYSQMo0OTgQtAgPuD/BH+C1EMTZVW56BoachLxjvBD7NVO1QhYVA2vTgh66AaOULwPj3YsTFNMgIrhtACM1uKReudtrUOWLxDbUkNdNs2YkbT+4PXJwIBT8633q3RlZ+enNIAh4vwJnGZd+XsOpwE1u8wdjegyIv5bjSdIm1w0umd8/sFnjwSupcDnl3am9fW52QioX3t0dwgJjB/yHdZUfdu0CE/OBJVQeGc2cU7Y4HOr5qaWW8Zljfbq7Lsoprd6X/2IMgeEGGLMQeoxY9vrCjPlTOonB/SppZ8z0DEzRRxnWSxYysU+W8RCeA+Cd77C7u9x7zOW8jhiZ/aDwLDXNShF6Q9gWP6WaJjQ2mZhlO7ye/HsYgVsgQY4rsD5BWho80XOSc2Gd/WkB+FY/D57cnfoLOX5Q2p5ucM17wRP5mdDn1IW8fvz0K9OSeuL5FshWrOpfTwfyuowSSOIcvDmYbZ++KO+MtolnSD/9JEpdDEaEOl/tDWA+qaDVZC3375ORoDyf+WSZpsW/JzfNQqhGTtQGj7LjM1Dya4LvMhI5hvd7kg0OctDywRoyvAieWy1t5HuNus1NVCHsXU2EJxAL8qwFKaHavBjE+QCIA2LXk2XXsfZXm2IHHTHSLT+rGdJQ+5O//CXWzsaJ2TmCwB3LgAlcL9zCNqxgiRoYdy8cRVOpUTqLT+f9vN1c9qVH79NcyCk8YX0dHrs8+f57/APLvBlUjHgZ/IC94dfJC+Mk0PYYWSeedorIweLQjzheV5gbdjoGMfeDFlTp7zQOGRdetFYOlwFz5KGrS4rGL1rnb4RK4TZlLRDUpT/fB2/0+SFfVji4et0VFczIVlLn7EcvTEcqyS4WYY4Wc540JjA7u9LgNAlnGyzvgHS9yX0Op5OCQn54vvrXbNoPMh7RbUjF6oBTHHHdejEe7aSldxsmnZOeHsBrJJxEoP8YbI/NqzdRWqoHMAGMVIDi3XplYUk/ivQ/eMV22Bx47lR18FrB7pXrnAyUz752Uk3B5wWcRpde4VJkpUsF01ysGDNCJWGpPb0jT83gU/4FtxBUDK9Ik+7knAoNfV6DmdbRrfqh16gLrMWmRJyU6/XeXqE3OQScpFCr7NDiOE5mYCWa61qQRMIPHe/Hc3WjN2O7F2A1kesKP2Rf+gFSm1OCWXB83Nk8a4fx992Up54C9XIAxWr7jo8l0Gm0vsXUCWWJZEm211oj3A4datcIHLo0NPgQt8gPuD/Qf+B4VG5RnZ0dz51wLLl7gkOsLOnh1n7dubtpzQLvXQWCib9mGoSRHXw/9shLBY0KIteaQDovfN8a4ZOramUqQm7q8LtAv6ZbTurBVP4DAAZqtnW7H52OhIT+5CbRK4xjjYMqtErbPU0h3jNOIdoDTsJucOEDTeSMnzSMOANsODBBL8wK9yB6O49Hq7lJSizWc/WDV9clETQu6khMgnJjyu6CMmUeNuDvBrLm7Ma83DVCnw+bu5RjO3M1joOP/RqQN/jT+6qKoKCLpZVR+mQy7GT98vLiN4DxZZYbY0e4RFj3Aio5G9Py1qA/DKqNfjudglaO2plLwZ+pZF7IatiSBWV3u9Lc26D4FU4pTOoaJ0MGOkXgocZU612wS8QnrCBr0zENcMjmRbb/KdttkOcnnEDpp3YAiI3PBnAQI5z08hGXsyIjCwlUlp8HtxIJaSQDPvvXqqyCyFbROMPcd6Lq16TTqdlR+PqLmnhvYdqsZKTMPz5PW7vpBzmdzxCtyGoWFlKjPK+XrEWUWtjAarsdpQe9KjU2L+r9Ie+AR4SICPGBcZHiYrIDX4hheby4xDJBn9A81W8imQrR75YbCTU3s4Cb1sH/eT16ceRPJMNW87k7ogqkCEBFLGKEyIWfGCTxZfB9KNL2cTq3V7FDU8D0Vz/c0X09BLvy49TslVTHm3lv7GHe+vkoe0VtNX7/ZF/UBQkcwT88FkQwMfzapH5blhQzQcIXCB26A0YkCz1EzEvcDkVBSDQIlqAzyL5B43ndzzGFbaVtVI+yzly2wUDoKHikcq8i1+cug9UGAJUDdxkjQFsRoSUo5NybaaHWfzc3DbM+FHft3L13Hf95iUgWd6WsNH6tKVdOKTLV4TO/WjELzIYXVgiM5/jBY7xP2mOfm/cjlRm0RQQuOlthBY8NJAv6AyikcKMQ2ig2rs8BgM+dPBvdcimSQuqb8PE0AtXnVXEvUuNI8XDMYdSlUi7KbyLlLuVpDzVh6LpYctKUTKDVAsv1xHMiXacBK3zHNhH0p6GaYmwjvekaEaeA+c3h362CbJjDENVba4c/hjqG4M/rP/5hbwvJoDghNBMCqxiKmvIzVvb/KBYglVgo441V9MwD1c2pUbs6NDSYELuID7g/0H/AU/GUMZNHbCJr7AEJ73EKB4GieIo73Ic4kgQp9i4nXokyOH1LRgIw4b/KwTXrps+NRfWVchKCc/80/fd9/k9UBv31uqcB2JwQta8sKEU6IsqKetsD+JWlwb9RifvyuaSmqyLFHqgkW2RlDcptPpG0qYmN96eeWqC6dIYxKkqfmsvyov00oGFrZOx7Hb/F/rqSRz09imKGlBpogX+rS4fVhPzG9W+0KWKN08m63jIWxvowg/8BJh+vH5MkCDciyPmOfs1ZKj4F+0o6wxWKzQr85aKfem/SStgb7QzTB7m29mp8lZmjUIHynShGXhfPyMY+X8S6MZVpNXl0cSVT9EkyTACDKv/0ylqsc1n9+pRRduL8N,,,,,,,,,,,,,,,,
