success,timeout,failed_images,failed_audio,failed_video,trial_type,trial_index,time_elapsed,internal_node_id,subject,audio_id,rt,device_id,view_history,stimulus,response,estimated_stimulus_onset
TRUE,FALSE,[],[],[],preload,0,3945,0.0-0.0,2ep8zfc4kspc6p9,2ep8zfc4kspc6p9-2024-04-14-17-16-26,,,,,,
TRUE,,,,,fullscreen,1,7550,0.0-1.0,2ep8zfc4kspc6p9,2ep8zfc4kspc6p9-2024-04-14-17-16-26,2590,,,,,
,,,,,initialize-microphone,2,12553,0.0-2.0,2ep8zfc4kspc6p9,2ep8zfc4kspc6p9-2024-04-14-17-16-26,,733caa6676f050dc4d81dc98035831b8ae95836899521ee3cd5afdc6df462e9f,,,,
,,,,,instructions,3,17640,0.0-3.0,2ep8zfc4kspc6p9,2ep8zfc4kspc6p9-2024-04-14-17-16-26,5087,,"[{""page_index"":0,""viewing_time"":1279},{""page_index"":1,""viewing_time"":3808}]",,,
,,,,,image-button-response,4,22144,0.0-4.0-0.0,2ep8zfc4kspc6p9,2ep8zfc4kspc6p9-2024-04-14-17-16-26,null,,,images/instructions/movie_1.png,null,
,,,,,image-button-response,5,24858,0.0-4.0-1.0,2ep8zfc4kspc6p9,2ep8zfc4kspc6p9-2024-04-14-17-16-26,null,,,images/instructions/movie_1.png,null,
,,,,,image-button-response,6,26658,0.0-4.0-2.0,2ep8zfc4kspc6p9,2ep8zfc4kspc6p9-2024-04-14-17-16-26,null,,,[],null,
,,,,,image-button-response,7,31161,0.0-4.0-0.1,2ep8zfc4kspc6p9,2ep8zfc4kspc6p9-2024-04-14-17-16-26,null,,,images/instructions/movie_2.png,null,
,,,,,image-button-response,8,31867,0.0-4.0-1.1,2ep8zfc4kspc6p9,2ep8zfc4kspc6p9-2024-04-14-17-16-26,703,,,images/instructions/movie_2.png,0,
,,,,,image-button-response,9,33667,0.0-4.0-2.1,2ep8zfc4kspc6p9,2ep8zfc4kspc6p9-2024-04-14-17-16-26,null,,,[],null,
,,,,,image-button-response,10,38170,0.0-4.0-0.2,2ep8zfc4kspc6p9,2ep8zfc4kspc6p9-2024-04-14-17-16-26,null,,,images/instructions/movie_3.png,null,
,,,,,image-button-response,11,38937,0.0-4.0-1.2,2ep8zfc4kspc6p9,2ep8zfc4kspc6p9-2024-04-14-17-16-26,766,,,images/instructions/movie_3.png,0,
,,,,,image-button-response,12,40739,0.0-4.0-2.2,2ep8zfc4kspc6p9,2ep8zfc4kspc6p9-2024-04-14-17-16-26,null,,,[],null,
,,,,,image-button-response,13,45241,0.0-4.0-0.3,2ep8zfc4kspc6p9,2ep8zfc4kspc6p9-2024-04-14-17-16-26,null,,,images/instructions/movie_4.png,null,
,,,,,image-button-response,14,45898,0.0-4.0-1.3,2ep8zfc4kspc6p9,2ep8zfc4kspc6p9-2024-04-14-17-16-26,656,,,images/instructions/movie_4.png,0,
,,,,,image-button-response,15,47701,0.0-4.0-2.3,2ep8zfc4kspc6p9,2ep8zfc4kspc6p9-2024-04-14-17-16-26,null,,,[],null,
,,,,,instructions,16,57476,0.0-5.0,2ep8zfc4kspc6p9,2ep8zfc4kspc6p9-2024-04-14-17-16-26,9774,,"[{""page_index"":0,""viewing_time"":8357},{""page_index"":1,""viewing_time"":1417}]",,,
,,,,,html-audio-response,17,72317,0.0-6.0,2ep8zfc4kspc6p9,2ep8zfc4kspc6p9-2024-04-14-17-16-26,9939,,,"<span style=""color: red; font-size: 24px""> NOW RECORDING</span>
        <p>Please say out loud the list of the actions you saw. The actions can be said in any order.</p>",GkXfo59ChoEBQveBAULygQRC84EIQoKEd2VibUKHgQRChYECGFOAZwH/////////FUmpZpkq17GDD0JATYCGQ2hyb21lV0GGQ2hyb21lFlSua7+uvdeBAXPFh4OoWLfb9EaDgQKGhkFfT1BVU2Oik09wdXNIZWFkAQEAAIC7AAAAAADhjbWERzuAAJ+BAWJkgSAfQ7Z1Af/////////ngQCjRN6BAACA+4P8NP8JfNXGk0y7DlkTNmezoL1EXbbaK+yYAqb3ZgTdQ3U68x2PCJRXRdFkbo3Asy/GmEf9h/ysYzt0VjuKDxM5RzeLlEiE6ezoPHUSinfvsmtPN9DeUiTPbhDDGkcUxoyduV7RcBxKBd7bVofUm+cdv3izazCOI+KbTL0nuxDpEX04rqwpvJqGiKjPBFzyVMzB9tY9SENeaxvtY5fLZqBTQcxtm9+0BVRMQmLmQkc1MiV8CPfPD5H7QTEKCAEEf2J3NldCFDsAoaOQUpcQ8Hz4wAAAAAAAAAAAAAAr0CRYogcDkkHNUlRuWcjEP5wlRkdduZxocaXdOdfSJmNlmCVSk5sGJFvC76/QwkxFGMpH0zGWXWySV/FweOjgKwA+HSe9YA7I8+G4b3bxhEH8+Fcnczhz8Uj5ePJM+O8zrkdZFqlbh5ZiX8+z3oXWWcAFO01wp/wBz7eyZqfOhbs6iuCpmRihr2dVTTqBWqR87KXZ+P0fK5DgkOHAncVHfLKVEuOKaLKTey2c8iRpqOpbDhtrTnvF6XQq9oUrRTC1ghKQ2X1kjvZW3e+ypX3/JQ/PQp9/xx2ObeVPlKZkTbK2VzUMjIJeotxRrixD2uhtmTX4XU+isQlhCA0GvV98oYbZ0V9cz8DVtQK/DcRH3J53oDA/96TfIIUyt/szdEK9LB0IDGZLgec+040SE9mqZGcG2T4F5A+S+J14TkX89O+Na96NqxQ8Vzgd4jg7hnQz3kdLopWQ2vNygEVwGHjs1PCzkgjP/eo5Aor+3oFY+RCHxxwKzPyDr9aXnVqERGjft429YUu4XE7hJCFqSYSq+W90aZqh9VUk4KH9KVStublN+Z+MoIqN+1B8cbJJhMMLoEnVPKlXHijnp4yeMMGohss7ERGXJG0GTvGY/m+ppdsCQTOlZByV+pvD9Ccb5cpxcljA3bVnRr9RQIo26eDr11st2VRWwafki+BQpIEWp29lSZSkvdpSiRuK57F6cYVLUFrPDPKZWXEHFZPZk4Eq/PTfsVEsVEt1PrwkxenN8hznT2KuMdX0EO/9KsqYEj/zWSI0HeYDbb+Gtk3x34a+GbWnTzrERM0iDnWB0j1tfsxa/bpK6006bLLRxL0+XDuTdUF5azdbm9Qx5yw0Zer5QQPXoKNpPTae/yNldUwXn4LUAWz6k7R8R7tX6tK8hrpQz67HQvJFmbONyXYK2mJPwr77pZkDqy/TyT/eqIhBoltfYGxGWvdlVRoVClHm0B8g6FfhrlAkUizQOAFIJos9Pf/deLwjM3uzyvTrwNRxc+jwnqHgZj/9G71cDkdMIT+99pqnMWDcWogp8DLCAvWe415rerys+klekMdUhw+h047QjWzI7/oHmCjmHJ6lwn5nTynoXskoYoj3ND6oMNoHMSU41BPgO5QxACrjLRpS+8RK1ZtBm6ViVcCflX8LYh68IOLOTMRKEZxHRaljeOHURV+WDaISCiY8XTIhBPiE3S3C9sq02BRN91MpYQ93QW6HoDJ9n6HlUINgVHuQ21ZfnobiVwlc3dD4ymmTYIQN2sKaClWq0BSeer+O80NHlnMXdM0ISXb/BDNa8JLmDMXAM0p8Oz1CKA0NX9Blu/0RKrFL35EIC1cuX4Uy9QZMQwD9n8MvET4IVUumKvjHo0NngQA8gPuD/Qj/CFHS/c2dJvGxr58AU4q2WW80VeMIVBaPRWRNpjoPLhT5sflr+6uVs0263K3KSPG07ZpCFhZmmEMknoiEGTPGKM6925VG8qmNW9WTeqHprET3HzD1y7tt7jr9v8Ru15cdPqNbHcq3LC2hgvRdHmeDA/YR5btq+6UuC7kxpMm2zobQgiLS1Yo5WWJFFYBoXeCsKiAwu9Y4DHWcw7/8sYNFCZ1AbNRFX2Zq/USCeAphqxp2gJZsdqg2tcKbjGvEKbYRFq0oWKfv5cZ0P6hC+De9z0BEIrHHpDPr9Y3TDixnotwvmKU4b6CeLGZDFjOBQA/KRUS5bQ5hFxhmz2GVjqYbItlZViqvYHi3/sWI1bu/ylJ8G9YUvyFpWC0v2IbX8z28Qb7SRcvarsECQxAshd9+b7qILlBz9kaMz6iORZg9FbBdDccLFGVyrG1n+/fmGNayZ+vUB3urDcIBABRZgxxe7CZUk+6Dq9dP6igS6YqpD4ViCmyYYpbvRXIxcPzpZj0PzRx0AJ2w3qh3HtpeZg2ObwuBBTcymfkweFX2ZFcv8UJrjCTK8T+IYyjJSQB1uf5i6RYLXMv/dL8z9j4BACJ8hfl2XRNnr96kHAbTPHwuTdX3uAvGypeaoYHjyInVFc+4tobTOHHlNAfD0Ijc56vpsaE0kFm3LkniaI5g5qWQphIQB8ifyT9yRiciGNM2e7cOlJ8xKhWIYUABdALmPzGhBhByTmEe3bv1c9XiSQBbdbc65EPG3FKhf/IembHTULmbWIKoH1kxtJzc3KAcfOrXUtofCfNwtSHoBEa2lj5n5Fukn8VwUQJtHVAWl/82LWioVT6Bse5domEuVkjm6rkCcMdx9+3V2QVPB3g/p2I4x7VdcFVZljAoPCVWcP/LSP1SA573zvDglf4fDOLG+iKHpHafEIkC8xTVzuQoDxZwMGDXjYi76Dog3NMwKemdF35X+VV/VicM5fdo29NOeGIHKdEav3wl5n1vw1CCV2ynQ7m+7VxtOygqbBtMTPCeAhWuJ4hkzvMDW6Vj5LEGlg8ViLmlMVkQuprfUHXZmfwk8I2g0Qms/p+Z9ClZjs3g3NKpcQAmlGwRFz+afUmZJ05PsRHsf2Ea41aWbYImAF54upUmFGrrppH5hZklX/d936NDeYEAeID7g/8J/Qo9d5TEMpzZupjEkFVIzMVTB2khyNmnaRO5xaquw8frxzPkxO4/EH2nof3dQ7DCILrBO7PBo22VZ0MmXlYOeGC3dqKJJsQXgleRYVJZyY6NwF5F28bc3sLdmwI3Ayww2q7RSFimUyTtle09AD6ItciLGIR7ptlDk0KxwAIDKagmW23kWiO3W+QXgy6RzCMIFKEa+ubjlk6vBiQeavVw1fOjxw+A7ZsPF/107yg6U2WKxud8lBRXpoDRxF9qxO6AzqKSLGlMfxElvokVAXH71LnWD56ns4Jk6Y7vNlxleSzdZBoXXv9xkzWQxha4Yb0lkXaP17r2rhIC7InfURcYsMFe5LB3TyjOn9N4+cZen1QBJX/WApDgaRMQYRH7+Mg9Ip1Nx0EYTN5uLjJWRSJ/k4CM01Sx/5feenuEHKxDz1wb37LvbSqUKyjIMS+IQ8qIR6I1P6btI6LR7i/bTmOVQWaSYSoy1Zejv0F3jDpc8PCtkEQLvgfIBRKdSmLgfirFhc7uCa0ITCihgnNBvOfMsdJMB6S2dRsI9326i0l4VKVqb9aHMqaJhh/c/JtLCVqmB4J0vGCiBrJn7Kg9SOrgLLJ7lxCS5hjPm42ZIfX3LJeoWSOYCI2LtQ41z7teku9UcP0ZkOxXxiDw4O7MkwFghn0C/bdJDoYFxx2v9hhpo4qbz72jTV+2pkwg2p3MxLdXmYcZJvsh7gyvPkcGs8++G/bGjkewP9OPR0B0m0Yg3Iu2OOKDlI9Gia3pfXhGCx46R8Q+QyhoJdoo8Tuge7zJRH5WGhnecvOOfv0f2bumzFbcOHQrh1VaXysPFxsgSVuAgTuF3w7wG/guk1rGQMqm5zIM6o+FNbr5D4YC2cl1N6inzhHXI1bBsa/YpYjZuts68s+oQE4Xlqa/bqWJq5ox7TOu7QvuDCVmfTtfiS4VxwPQCNfLAk3NGznV5cRaCYhs4+HiSE7p0W2h+1znY5Kp1SgyoeJwXlG8PJQWIuJklB7axqZIHX6niye9LSukp5WaV0YIDMprzw4b/+VF2LNf9xx0GrgBx1zYMYC+L0w4eJD0D5l+eyo5lvT1MwGJrXCJZcDaxjdt+Qf6+cITtXiS2nwhfSe9zVze9dOlHNsDVKZuSPP5DaurjwseYJzd1QSdFVc/xQ0m4x/YgDhrXrYpCnmjQ4GBALSA+4P/Cv4LPyQr5m56rC7HCu6XpqvpDim/7F6boFj9fQaJysFBQMgU19wjONoClH9Dog/iqNGb/PvsmNZdXJN9BPKHcbx8/ZtNRhYNlzN4lFE7BbAQqbWv5YsHe8fSY8xJEIrKitswtKyNz2NmjlVSAwUhkIzGbIMtnObCIPyqvhS6USVyBFlTr8ZPvAd+frjolOxmJfAcCV8+kkNLHUaPVIpQgYBltUyu0N0fQC+LuL85sINTv6E63p/w02J6QeQAmsKUF37nT/wu3c2EcBoGAHuwy7OyFa02h8k9C87mxes8eQGxIacqYvnDyARRr+vnwcPsiw79EUupnpj0hhWt5Li/2up+U+eGL/akbJwdSqrNJ3a1Ojy0sOhsJJZEq69CQ/njAe9sVSfH2jb/azuBOXD5tkzQzQ37EJ1tVpXiYUlYK+Pcutvq6HqPpsCxl+oa4GPr4Stz3/HsvXPq5K6Mw9+3NQlE+EIfYkts0DbILSrMAT68eq/Gd/xs7YcjX4ZVIPegnvYOr0imSURuQafeLfyMjk8MBrjTA5cW4CQ1qJMufpYzytzrf2Mfg86WXKTjl3j/5Xo4aHj3X2phJEhbQZ4QhHpAkP8TuQZr2FlktUNSswKcAnQn0poGe82LkeHtuUsf7h5MOrlJ0ZEtxxGnBYyVjIcIitkQoo7/6hI9I3XfKGhZ612s1yPeOMZRGP0I4XqZ4sfpzxP2DKNdCWBBI6AVOMbtFH4ZW1r+J5eJ3xq33ui6irC36zSqkK7IEQh9IsYtNCiRmyVJm+4qw2sUNDRyRqP9FZs9O+qcgFELMUMkY3ko+mBnOFCpGE1coSKpcdFgA7WMKRxeizhTokhp4rYmU1PSlh3N+Kcn2gL4l1WltpWXFB6yfRE6PZhaYdfmatfWbWBNdTW4i3XtZEzYhdvLpOv4KRsUiZ5YivfCHrYegeSVGB5Hgr1XenYDEukv06/ifNX0yALoDGsvUQvhkoEYzJbU5dyd3PRhjmlwqyK0iE98Sric9UmB+Uk/eBrAp2lS8v0d7m6axwgIxQMdm2llUs102316VM/giM4srvUFy2aWP8EhHpLyGmxocK7FmPYFZkEqurqoRuKVk34/yB6OFofjKIG3/5v2IWQRE5JXJgTi2N8YkLiQCGTmuT80FCVOhjbSI80sxjloG12zjNmQdfqTfHJHlJ1iHcajQ7OBAPCA+4P9C/wRT65n5wyH5YbPRUfy3xpI0DmlMWOCsoeFfh7qAw2lNQ7uswHoppXpPM4nmUFpSCLr/9gBb6Ws7xk0vN5NOKc/pNzhT9ggPiW4Beren9/g6MB6we16gg2q6W6TLgJvznfT1LIM/C+fRxq3P7wDgnAGAi3aTsUrR2FKAsjbKfAhf1LkFx0e76ge64WhBLu1NX2h2YNJyToUZM61AXB7hX6UflouYtbXO/sawX9ExOku9Mmb7GprekeJe96YTZHsJwUEcMOVAkxJ5PAGDmniIxnknmMhM+QjiHre8AdR/ScEn/iJ6EazvnJ+o5e8xMjuWQZTDEGALsGsBKF6nQ3SwUhVv/M327PZd463Sc67UfvO9liNLzu1Y5YsZh47Qi50IXj2KfGECYg1Vn/UUn/kY94OmKB/8q6lKVmxhRlBOOZYmvw4h4tlq5CZ6Aya0wBl08R99bi9bjSjrx7G3R0AIiooEq/gJdW3mhTgKfBD39uphS1WX2wjNE/fnu3v3MqWO1UEAFie+LwC1UmZUr1RSbUMnkhk7fRcZyG1y+XL9U0tmtL1sFe65AaUuDM8PULxd4YgovBPpZ6/Xsaa0/RXOvTp1Tl1eg7zJ0ZhjuvcooB8KulFSlvtaS4M9F/BJ6ZL/Iofkb/VvHlNvGNT6RaSpUtLe9//uh8Be8v7m2dTlxNOe5zxjAmRjK30GI2U5+en8S/2uhpKxAZnhKf8OYHsZOk0RbBikfYU0HB3KVc6TDZESVM9SYq/X8iZDkI/9VtXTZxzPg0eQcjr8TZtylRl3XfQkuUhrAXSoCe4NNUF2OQEl/76eKrrD+/3yeU/MvvPRrc2izOD8N6AKAi+thcoFydCC08zcSZC0L2w4vCQuxMiFq0doy5r138ErUfzX5qCLwI7us/2M9MpZ4ZhQ5d6d7fN1yeuQdBM5g7ql7ZEzF50+/d8jmcnzBU6SVd9cMTNKQXDroEqacAnGc72rG4LeRxAFtZsW4W/5CuHdxwjOVyGPMY/E5YGccKbT4EEwV6DQ7stQXpnMKKmHBqhMpc4XlplNuWM5uosbNI7+Y6RkSi3PsRnEVpghH0d0febDhfduRlZEbCt/u4IPGkOHtFMH3pBAFTXtBYfinfqd11LrGYqjz5UdV9dqih59sH0BEgzo3L8Z2jam9gjNcZQ5+tOleTmflwDA5jzNd3LfQULUBDbx1MXAqV/IIet26V06rdAqRY6Cto0cywYOLf2vDXwsIn0r3Abo1BMs7m/NqNDxoEBK4D7Az0wEBWMjXMvQEs/HUYin1TScn5OBjfbAJB2wL18M6Q4n/8z49nIxlyz6agEMLNekU/0DhunYcNUJOEB0uWRGHmsDv3qM/k1NIDqQU5olVzEDb8AUXCEESZ3D44gvJmTWpsXfujEUq4j0MZxbo43qW7OK7ADcSZYF28WjdXEgZ5iO2RizGWWRRslMUWv0mCLFM273MsIwsIprjnRbHSPlnp4zCWyFsbhwCXLi+yR40A/nCOuyn9yu7OBn12z/ku1mgVDmfnSaevz6hFo7VFI9s1QRAwkHkbZedbQIM0rRQT9gNs21XWlq2F7V/rK/JAEo/4DtqtP4b32VLgNpUIHGQ0pfQlkV+7nCRi4RykXN7ZfPGJjwfHW3XaW11mEvXSO66KRlnlc04Nf+Bqfn/NnUmszTFT+p3uezCAQ1WMMAPucURrmmeptgVViNUFbrUzM/2GY4i8p+2QaSPWw8RqFcwH74gx7EdSuXJdV63tXRjuJWeNToi2eE4xFib2vqDDQTbL1Zh29EBAA67HoKmbUF+/rKkG5jGv25kSFHxcw4VfH+4OBQ4GDkjcS+iJr8BQ5DpLcnNz+ph6wnoowiCmybjtqT0/AmY1On42aYoU9WbRBP6N7PdJHBheganHZ2Lr0p3JRgi09Y1cvlxgBvuX8YzvPK/GlLhD9f/h4kkq70J/doyQUzygFaUvWTyWjYCCmh70LHqVl4wZOTLkhLb7bs4nw4c+u5kTjRyeEAuqC3eDrbKyoAUaKxO3K1jChvTwyI8HJPTX1d5ZpNFNaWqSGdkpDi8IZ8IV1YmDo94KiBSZ07lgA0irrd05XvUQAd4roegDTscFfpC0oF0jl/f2+Hz8/PH/a0qVYbJn1RauGQYOceVTD/Vm3FUYq0ZWSWUKK7xYyj6NFnSKURZ3PDGQixf1HCfyl6pYHyu/HM5pAnF9GTMPuYR0wU5KFMZbMplnIulwk4pwNOOgy8JyS65osilm7Ke7WSyNd5zQQkIa2t/s+gaH98OepMHUiM1Gcd7M+Q/2wNDi/wMkAQrK3/EAb1hXa4ttbSfQai/SeI/wFztnlcrH/1hhPb9XzlwzjDQrHwvjv87z6Xs7V5s3fudIA2qY3oogt/tWmWi2RbcWZdiPLXHgoXHgtOyfLCOn5ep1wY88G8tDMDs6gGgJ1Z7zYiAKdRkvuPTDSVrsFs6quiqr6rWm4EXHb4R496RCeI4yNTHbI2XFp60gHjHuVqXjbYzm55psDXoWfnE47VNpppRxEhFnRQ0Aa50oMGr2+BTZW56NDxoEBaID7Axj+BL1sbdlP72UusVX3AF0e1KHRskNwS/XwaNymp5tlEepkCQjdqne3eACDnNfni+SIZ3wfyMo0LjEbac1FIdroHT+/KrsKTLeZ4dfNYtmkSjnq8ZkezGVbVI/n+rstd4Y2HgaysriC3nQ3szZg5MTwj5iN4naEsPFH5wNQVGiWa1qv+prGEHvus4TGYN/44/TrzHqK4ouXsmXMzZ4IFepPo41viCGAiJ8ivF+rghD2Pb1sWjnWBPu/mQFaEc+kFch35kKUmVweK6e4Ic8ulMX1tOPmJxi/HJfgA6yuUBiof8iiZ56YLbBtCfwPic9G8XQQYRax+xCALOpMcoAygmunYoFH/tDdurnIRJKDKtzOqTKvCEUClM0tjeUTWX25AUF2b4mUbJ5UD0xnl8CW1Sce35u/CWiETA0b9MSizorKP82Pr63+wTbDviiG7D3y6jrKNjb0IB01D+JlF46t1vL3d64UAciHmxys4Y7iNfkxIA6iwgHziRVIjGo6EZjWQKnf8L3/oWIxx+lYyd76lgcfourdPfhN5yjz+4NRK49jKB8De+AzM+TNrUINS36JfjUDr8yIqjNgAHXGwg6QMWfSKELtfZ2W8nk5XEQGUi6LydcD9SS5LbvPAQqDMc8h1zG+GNJ5M/rYHuz7YQCEaIAdeR8j5IBfXc+BDLDsXxfKDLIZBVvVLjqTF3dO/aLtHgcD4rCxS9n7H0IAnHqATaRuCASozyMSJzDIYBmodlQUPSwcygGXvIk67AQNBBRkgP1kXeL5WT9/9E2vTbGMoCjnRb0Avm96HZZixqJWWnTx+1GpXmjwI3+m3jPSgDBosz3O0PUVFLM3+zVVn1RLwXtA9fQZjMrX0ayPacG2Ht3jaQoOCZNcQ6JH+1aYGDIEdD/9kUWpZ+b9EEGELi7JKnJb4YsAhAnqJsthzx7iigKLYL1oT/2muDQ6LInQCuxBPveA4oTCBHCXLazhjTipSQkBbXa/5bhHAfzOElsrvJWqmDWXTK+IddTfAU2VcQkFHr6e9OQYW3Kit+pXAPiJwUSA4TjaBvH5zeclFPbYEoFhe5u0/YZJy9kLuqyTX6mRMYQdOY5nfc2yodFZLPeWsmXHZirSLNuCiU18zn58Hc5hHxRItam36ThkKCiPSPpRDWMW9oLPVGdpYS3uaxnUZ2VRXkRGhTEUpVhlpwMrBVvP5gE2Ue5ApduBNUiDH1wz5ITJNAzkVKCyFXIzls1VOKvSlXkl7HBsBDHk54Z10cfaB2WJV12eu8wpR5wv3VyqPaNDxoEBo4D7Az+rzaPezRkHRnn+Dmcx1paJLWezs+pzIL5jODltpVzEWG1Yug2MMMhuvU6H2IAkTxANwhLN9Rd/x2/vIenqILg9nfu9H0ljQbPI5ki4r2vs3kEmeQjlfIKIdp1LQOKYKsrX8B1hClv7BpKNP9jsRxBvRdNGgBnUhR2vrqQnnW2m+OeLTl9SrUVH05IxNyATu3jUxOnQawVQoGIhgVRFWqat1FuCB1kvVp24OtIlO9TfUe6t5uLSM9uIdkzB+j5qoG8zrNI/4iI4VwCqJiubcCZpdbiskGB5qF6vb5yEyLkcoAvw1qCh2q03G7KPewNb/HxyJtMq2NLd7WjhZ6pFdmhfiVC4VRPG/U/5jOXrHhUeswOM9PuCfxS7tOxqxmCj2ZJem/7QgoYegPNRhe+5CP7gwv+9BHXvOh5T/dLmWe/uUNVVPh1Kg9kUZvMWIHsiI+IaDZCBIKnA/ipPU9dy+EQSwVGxZCgjiSlYAxRnGs2KIC781mD6kaTLC74fgoPqd/+6N7F1O/eoau8oiY+croWB3wi1v6KKziu4LsGfpabMcGepn+u17G1UuayqUR/fJ0ZjLVbqB/qNq+6IFyfd3jxsrcyZK2OHFqHTggPQ97vdoaKHtWNEtmJHQ01hbVJDNYZTmh56UhCrynib/hrp+h15zOtyCEZ4dAl7urSGAm2o5eWaxfgxnIXnlMiO6LIxDIeG42chWzUdxzntvqaquf2O4/jim5ZnK9HYvJUD3XrZBpOOvN1C7x8PiNR01XTrKr6BfYSoQF+dC1TBeQhwcgCHY4W+LnuJf0ke5HVV4+fefc57eiEfB0klasqdM31wzThPGzXAJQVNO2lMIMbqGGc9gTaPdcdQVO7LblCzkyl0G/fXdwQZwadZR9v8d3yFJ3/mGY4ZkhHyAey5+ui6xxI9TByvdS6MGPuWXpu9CKLtyfqbZ8xBlgMAkEIGcAEdVLdXD+arPEtiED0g2HY6eCW5Gfn2ABnEpiSaA84ZOylEF+0X8tmEsQvbZMBPFctGGFUi6DXIT568BZiE1GoxTVQR/Nqck/hQ1RQ71pqDmbNu8Bl47jKkUxDfWZcjL1RhpUoTsGHQ63mvdV0Km9XrBnT4sqQzh5kbQQDTDuyuRdPBZ6n7Gt8L6JLWzg2NVVI+hGUGwCCtKrzpwCh1UDsHEmDqPsv4/4Aihin2euQpRf76LP/myJMsan5zfJYioubj/ClZx3+aLtsEZCcjU6YPf9YrT19QRd/67/iMQkPn0xtoKWWHeS++/N4ebOWnD49hVKNDxoEB34D7A1Dbar8/PtK3QddBVrsfgOnVHGUXpGg+3CeiHlZ7Mbs/EsVtIxeXGqyrLJ8Fc3hrxHxDD7KwfJMmHLfI+h4c1KVofm3ZabmVwMZHyOQw5DZkyU3K8G3/oXua9DzcPp63TG78Om+FloHaFFQDR59xFwVuchUOMzvL+kUveWAaA7IPaB2p5U4tDoQLTl4mRyOt5JuE/sLledNNBeiMhru9TaeTRI4B97IGXHVb4x60HoLLSvyukcgU9MsJhMDXyav/n95BDS5f2ScOXBbyze1I4lbj6CNWAkE84y8Umz3JEqnyZthAPp86/sH1EYJLj/MMoanX6wQXFyke3Cn6wuO8zKcBO/pV5nN0hJcKaM+4Cr8HsIdBcTKMn4wSbPJo/fVRDJgI52Oc3NqGK5trK2q9NXIJ+3AKz5Dafkl1CA3Wp0hcURrmtoF1D31VXvE+d7DO7NYv6/V19AJXPNqHOfHe0N7oAnz91YYjlyimjiWg22Pc8imfrR7HGzsABHdMhzxNimwci4BFDRdZvKv75lXJn79NJcauiAaIYl8gJbcKubT7Hy0f3t0kur8+0xKyWPLzoV7rC49G93cH9LWBdxMFZGot0E3lzCK8ixxd0T6TMzJNLPbgLOXyWLshR08sAGLMQjd9qdtJtAlGNDMkhQG/1RuYFnY3LNw7T844IEcfcF1VI2rdUySBuIl4uqSH2TZYUD6uPxhiN4cHUk4HNflT6mDP1Qa2ykZrZ+7VDs7+ejtFKz2sMtW3NoKi5wDHO+yywlzgm99tsWV1SrhCu7b7ZeYh8/dsJMfu81UzHJeouoAWazNRTnf40ANRj7xu9OBroPlz9Upv9o+GF4YdEvYEHG8/0DMvR6fBYpxgNKIToztNhnjlpAS0phMfyXPMJW4TI94qA1Bi0VN/zxQrOdRCk8b6yEyWsiiloyGclZkF0D14M9rbLV6XFpkiTHGijojMx8rzS9+ZWkbVyKBcNHUSZCGeoutPfIh3oRxMnVrgUQkcuvD3F0fRtPtF/xOjgc0uBfvTkfapYjRUQ0zlhTKejRG4Alj5JW//z48StTYv7/Yu9Wf+X5A9ErLKT1s2iaRj0ekGuwQ8QeSwMpiS8s2JIvu3uSTahPieIhe76NyujAIo+ZBjYIPJDe3EPnmfHi6ejHVIREcIMnJrRyHqssyrAGvxZjNPN37hf3F2ZLNaEuZU0lT44QyoIHyVsHSWYR+jw/OFnGtphTNeSsiYoVrrsBVmm1WyPZsy4A763yTQSOb6rt7aEmZnIlr9JVdUgDGTbqNDxoECHID7Azw7RcLEQiFm3g1cegSy3eTpsnaXchBeql2XKo1V1lpdbQWffqLnUiHGOl9n+nBUdzJjNgXeGcQzecmGx5LUOZqLvWiHmYXGKwJXzHZ2HuU4fTHBGXbhVMJ/qX98ADbI3zQKUDxGUTUAJcP3VEa0Q7Ub7qPbivkJYKwB0BoG0+atPgBly0jGwo3gFbD6UpK5Z4vjtrh6utTsEw2NG3j3TL9gmYzzdcApVmfICZr/r80lPmtLYMVKrQNbE3uizXl9WUCYpUG4+5ze0C0RvynV5dm1XU70ScUi25/jVze3zMTbgMBhCPCASOu0sQMWdi594fdkqCnRNDribfduHKe9JALPNM4zKbwDW1KqhYZo52ulqs3JoaSSqObvMWBWJdxOWRKozdAk92+kWpq/dRWN9bqoyxQf5WaMaykzYciSik4eFCHOeSCYzZwds/XM9KMcRZVD3giiK+zWsA4xqJR1Mbge/vB4DcWi8JLzba704ArIAj8xSat4PpdvOSTh7fC4F3/EODO7EK1AcIhehnr7/XCfy6tQhEXFdlFQXBIlIDp5WNlHf9rx33Y1sRHWKD8q+vvo/DTMf6lKALj0ql5Voa8pI049zKwPur+0xKSxyypuwG8KKATeaAJxqoqfcCosjnr7u8NBxqR6mhW50GuHPvDXG0mm86bapmdWwT24z5Ji0peAyx61MRSdb8K4ZVysKhFuPWe0Ca+1bmtf+ZLqL7p7EHYGLNqLliNIGJdBPotyB3NvaCWN3GNHGK+lv0z63TjaGduXhS+dWh848EayHwWcBvB70rVXzKJGZccABfkxWeH9K76UKN2fGuClze/H6YMIuD6CZ6qAP+ROkQkJKIAcL7uPSc15ndhm2lEStIlY5ulSd6oYdh8G2Sr/QQsrx21nWqUimSvNOv3/gzhpO+oAiLHTdLyz2cRMmxZc8lA5r/RlSloTDEpbPB/YR4qJOgHX+2tCtSJmVJSqTmeukdH+dh8gsp8fG7lJDrwg6Q+ygP/n2GFBtIKgh+c1WtxkZYblTqi956CvwsTrWmu5rGeLUORVEmt9RpM1rkvR8U9xvRsVjblA0hJl6ExEIQlIxFC5L06vO6nL93tfB5X6xJ4eBmOu640U+ae20l624XNyf0cyNygxPZib5SeMTMYLKvPr5FoplmA+Umn199awUEE+bERQ+Mt1oPURNObNXWlEh2cbccn+I8DauFUslH4BqjmO3WHN/ks39IpuL1hVQaxptnPw5+X8jRjS1mpvREpKB0hET+yfhZ9OeGWrmWpMHaNDxoECWID7AztB3zfWmZAEX/qPtdO5Tc0e1WtcbnBT2VHOMApRO6CJM79neN0fEYqEyQ/vdtIno4riiF1WtU4CXcMypFp26UB835FNKLnn5dgNN+EurGfsLqI5WMy1t2RdFSEQNtxxsUuNpgGuYgxF1m1GWnLygx0XAua7F+1PnTVdJ87c46gMM54FdsGy6Qf2ImpiskG56w0J83aohbpwzqmq9OAn/1Sztb/+23UMyx+PCJpI0kUDcbK0cz6jm1+scGLUxTshK78Qx5OSALO6EZYGtXiFXYfhGsbhxiI6hbIFmU1EgE6YH2N7/FND8Jgx5KMxX0JQRyM0yoHT1D1uMQ2gUY0g1sr/j2J8KfTTQaujfbxg5wLM4jSimwAmXZRtzeoiGMuqVH1/+5K2jhL5FFXDdup5sR+YfLi0+Jiwi/oguAIAZ7WqGxeGHsf/ybHgqLEKm/cAawSnpi0UdLnb0uxtLZrAjfZMijOUAljG5kyedG+bInWpKG1NG+Xm94BglLF8fSlmfwwtDmrDk0SZ0zYXj/W0T/y/Qa4dRH1nK6JYh3D0+mSRducttbohdP0Aai17MaSK/qcKunQhCqp3J696jhruwXsXfMW/piwXW9XFgLzDu2vsKPOaHgDhsIQHc4i3Jpm7xz+3VIHMbXnU2Atixpdz1lXexPhoDKl+C1GH7oz4EvZVlDHsapHdIH6r3d2nT9JddL4Ui2Maw8yv20eFKRQHaTxyPWt9eVcWhN8GXv0sokoGP0RmsC56Vdb0o2IPHJCE1QwAeti03o9iQlMNnBXd2pPCAlmx/RCLHMqc7ZlReInKnz0Fjw0bNqcWX7/bTobRhlqyML7cFKvuPhs8UJTbMME9IGPIdlkX9dEv+j2zjadQmLofuV2liaoLiZ4qDILU2WPtoJwLCTGJmdBFpJpEoxmP/lqGusoiYjDKqfTyVq10Z11tdFsHoXp/EnEVY11ilj26IDfkXrGI1M68c9Jjl4tp0MO4QziIPVoUWwn5HXgXPYki1JYpuZJMidDLQ6sqyqWujaNAe7yIkSiwnDErMDFkb+VUxgcVPnh/0cLJev14xz/HTuFFoQ366KazsjA03YjAVb/yZE7vGooSwVUWCnG3CZDWPnanBxqaNIsbMsVCoB/MuR2/4B0T483CjvY6Z7i5Ah7RgbOrpLPj5nIF0uVW4gA1ZhGxsLt74tUeZ1i4DIQrvZX82BEy2523CrBi6d+fFyP2JHu2rldLI1BWmMvzDkahbrsa9ElQNXTIuI2ie3ejut4rTY9dzugzqHY7mqNDxoEClID7Az5UCcxGBbWs0+TcWb1K2fz0ivMJUJlUbZS57TsGzIgDFzIMQTR4E4EQtX4OhD/tDiwczX6u1CHQFXGHDO+6RdZGjY8TPX/5sWsq8ZPzYYYntuG0PJoNnskI18PNKzSv3Hwy8wxcEFSRLCOCIwTazEzxtWqM79O18H55QIvDR0Vtaj+nbUUoAH+N36sVo/4oqpQP7gEcGTzHPCrepoRccs7WRoZLpMueJuS8o+sxdCOidndYbsP0+rFgB56rrjvd+RCTBvJl01cp0Jwz5rswf0GKCwqyX2150OgmEzd3mHwMJzeDYWdZwPG8ZqY4oaYzHiIIFmIk5WZiGNxHrjmBUjKax4yS7InJTAkhtPrT2URyOu8Ny5q2XCpLZsZqP9rxFFDmh/BjdN88DcG1BlKt0WHwiVZ5VO7UspHlMHPEWQApPBZ1/Rd4LWLdSMFSrxGdlhvja8aZX1r10pvgawDcRWDwljCSrgMza1WGO2YfgxXWlDN0eZhV/Bu501POxbgGawRmA8qwjSA6EBz0XMx2UWdNja7UowofgpiR+aKOdgJtt9/qFekrrKHOLkXt0JwAVcTzDsN/WBjQwRuKiIJyFZ1+j+hbcsVBcxA9yGHzwnWmaaRfxR3NQQraXK09ldqe1xEmFDK/Jg++ZedMrW3or3RI4kgPA3f1/98U50TbeFNdEiUmT76eWV2tuzVfmZZ9+Vb5HK6uSjH4Tgiy35B0o4XZps5Kbl4escXQqsyWabUiWcdraTS4xKJY/9sacEqr8/9/VdwC4N3u4dZ4wJqkVC9Jb+nbxF0iYog6/FAw3IQULSYuTKtu7fypMKONH+80zs8odGN7swkMULUhxms5OWwjRgGwCSgXW4cJjEhDzmCEgd9FUlpwut8QsYDSlhdI3g35hGaKrezbE6NAs2TuRZPewBvaCdXxW68uMUK9oR9FUN1AGfMn3BvFxE/jxAIQSseR/KBFEx1HnMBRugFLPc/dXvG99A9WlOGnlSpHNo5siiVx/ofuxmldWPwJv/NYJzDyi2K47VZ7dleJjYm4Bj2AbsXgHA0nC/crFr9UCJ95Dy3uHr27ma5zjsHYVAeRTC7EGi67n01cAB3U8BRY8U+yCL20M75GjuPw+kbOfuu3ytwGCvt2fo4oV0XUTit4NRWz7qZJeCuUXNo0H+JhzIpC+w8zSutfCgaUiqwm1WnqV6muMNnJeDQEhGrVtpZQGZSDmNB0fM9DCudWNV1M1e+AJ702SIlFVgPF8Zs7tIdyXjjk4mOQSiF+9WoJwtzx6aNDxoEC0ID7AztB2E+VUltZyS0ahrivMn39Xie9/Sxb5xWdpNrpbddj1ZQmFtg88+yx5EafS9sxS2gWbYBmLQX7tnSfGB85T5YvfB5XRkDo8gB+STOLSpk/sfCEys/n6fwTGcqf+IzuvLb8JXePGojP3T++VTbR0vGtaBUmaNC1bqAJGtC7aUGaGVwTDvBDEvCfXNnr0b+JMzSpl92wwYgqGluAEy2bKrH35jznYdtSiRR5/U4vNKDFV8knkkm9QpNm69ktyjqFWm86QkJbiUNdnrgomeJNr7aGyKSrAwQluNt5lWGYgIb5koSSPKRsXRMErFUD2Nr3jxKeWjqkKSo1qWQAq8eC/846sUJ3U7ygonITn0LemJDrcwZ3b+gfW4r5PmhNqf2X7YwAER/Zh1D+mQP8YIQ50bpYgLU+dZ3vC/5XFxHycbZBGbwOb2Y4y8GGDcGmQsKvF07e3fj8U5rBIpYGXRkiTZuOE5iT6S6znbJYH9RVbmWkY95Al4QQKNaKb5ycriy/p4M3NqOK0EHsyFNsPUWx29IajkgX0WxglXcea78LaPOGPNc1/VEilxGedNPfiUp9gUoKaWjfnUpEK7QxAxSAhcWCbADTdyIdGJBYwSd1DCr4BeKDuJUXfTwuLheGkSyhN2JJq+69D3giJ81UJaKG/gHXpz6xXieueKeNL3KX0CZPRGh424beQVY/daIoZLdz0usMKKEje992V/m5wYUT7o26nayCaLgTCj6GdLUi99rdQfuzUtD7MyATQxwuyCrQBg94mOwAeyzCCOfdodR2Jb7LOD3MWixpBI58ZvakLY+n3cmOWX73OMKIPcQXwAjrmMkYXlJHbuf9PX6E9MRvEEk9+owTDnJ6vcn9NSkuk5DMuNYGkYMkmCvdY3iDKArcwOZpOEhwvwF5gfDmJZ8E6m7sXWMQzm75qmXVhKxfO8IJ+w+2MkORmq2VAJSR1spzI7HmSE8AWbi0AigghzibGGxnSKvor0McJO7JZcnon2klaymfQsZVXqcA3lvlRVAZE1vxhsS4d+et/QpsWFPbtUy3aTn/qJXixDW1jpy2poXB/o1vhtkmc/Hhm+FF0cXMaLtJMedxksKL8d7y5lEf6mbDoyLK7fUs7OiBiqSnxXHwltUb5kXCG3J1oUaCJfPKWXNwjs9kP1ic0/SG2WuTG/4oKVGY4KNIoqk2+SI/FJQ2BF40inl5HHFXvQq2Lb6Fc4G/zughhIFD59us4xnXA/L5cFi9J40KPVh/5zoTaSu9LkDPV7+gnCJte2LXCUES1qNDxoEDDID7Az9ixzC+LAPr1SaveOQjGF8rbA0NHvLeqQ+XGqexMN5BJcYxT5r2kBeXcB0V9AmsmO6LA68mrfVFlskJU3uvGWOtnYxS53E3avaZypMrM8AK4kLssl09KO/SjQTPU2V8lFWuHBEwuPijyAH9x0r9e7RNQgHEYYlYURsFxlIO4YT28dZ8m2bK0fuxPF33MwJ/BXxo7lzQ6dJaAWVV97xEHt1woCjo6MMGafTenNH/LKsESfpO08q4CFvkY3105ySya4KRZt1eQ3luZZR7neZISbnGGZlgZzt6Bk3Sm+F1GGEVw0r043M+6n7Xc30rme+aey8x///4AbsfACMUWTz5Z7gen8LU3vwLp3q8clf/fA8ke637lczei4wwjRhoBJr9aIMrlSnncKb9Guyh/8R0JrdY4s7QoB7Yi+zZSLL6Ra07Pfvw4dStBObwET02vDx45iCSXvm9SzlmRBrRIwP1XqJitRtns1Mr27Mkq59rV57Exfq28uiUGkohNo3Qm9MurgVN5kYoMppXLNvqgQJb6bsYJrLdB4CEAUNWTTq/bkjSxfyLP9ZoY7pWPhez0y8bqc6bOdWub3VRw2Y6nldExTlmpjuwBNV/CbEmIAxnmXqzb0OtjAXnq0ZgBByiJXlFezDFJnf1jEQWSY2QxNmNv3EO71JgIXkbRNBrfExOzAdYWWxme97bCewUN2dAkql/QfOGR73pXPwxJlgAdr5fZYTGjQfiVYZO4wURni8LZP4qB0qaGV0s1LeDs4Io3MBJHTRB/ycsgjl46iSRkwq2QdAtztpKlEGMayRLhFewKLK5MVtxO/yHtAaEB1ciFnTjM2OELruoNR8X0Bv6actDl0oZkqCfjDKAPAku+dc9B0CfXzOBY1JqHatu4bcGB+eX3Qx5vwUh1+ZqPpl06T/3Xl72NeoANb+m2Ms8Ao6+6mNuCXy6ErGUeIl0uLTtoc5X+nX7GtAlsYBKR+iKS8ApGmn+O9Np5ZOfoxDS/I2jKicTjrNfxvx1to8oMzpw8yS2muKF+cxVbRbO4XGHQdde+7hO4Yox0z3wO3LH/f+BteKz0bHWYNn1YKUKSNqmysTYlRSUWbGOf3/Dihh4aRP8I2WFWsscc5GnkVfPKXu6Rx6OXdGU42BPJEzZtiisoiYYRlaezEX9boyVMtZeA+nFVJuekdXdmvmfJgzE66Waktr++Lr1jjyNBFQGOF9yH3a3PX9FQn2fzcpA+1+bshSZNxgWdboX4AYs9ijODoMIXAkMR1I0V2kMh85Pj8sZriOqWqNDxoEDSID7A0FVMzorssYjJFpYQg9/739rYwHEClYp22DkeO5HjXAXCHgfpfUPStbJZ/Jfj8b/WqAR/Ky/wIYIFKIOwP1r9mtABar2tz9Byu3kUx/d+qNYb16FDC6KIs594KHbzjX0uWk3+s2rQTBs3CA0LSEm95rMRv0TNTHoyRJqWVXtgvVQqaB02/HfiGLGu29yBzFQfJxrICWL/MOvMNtWym4m2fZGo6TMOeRB5v1ILSKH9jdrhwkqo4uOI+4lAqZ5M8j5ghNrsfjTOCZY0bIOQb/6kupsLhi3XnBoWONORoCBDH+Rm19O269upoGDW/kNNhMnwC6Mt3/PVWSpsUoBy5So4mSllw+dUYvLeQNts305Lo+tyu19ix2mubXq+EfyXr8WeuTiJg59I/nVeggWkR/32iBkv/QdYSHQvlyYyZ/hMck9QKj3yDtccT5laqbhdpRd2rAvU7apLt0NggNwyTsHSsSTFP0Ly/v+DQ5LPnewpJFBHdCu0DHnyv9bfAB/DZcW9C/fEYQXSiQWP+LgNtdDDmT0imacNYD5XYP+/cCox/jazSBlWdy5nIwAUHY7Z3xfxtRfjHKoJNkNEscRV18FmWBpxufbWe5KcEpir8igR5iusdNyK5spgGc+lld8I7ZCEDZ85GCnDU00Rxr38z0LLOTS/3LEZrH3AraYqjWTlkAPr20oPL9MvHnVD/OwPhI1/r2ekBSWkZG0omuiWfTcCgJOxG/a6x1BcTAzdKaTyIEro7A7qcMpZPQYE/TU+fSOtAEl9pswbxjJhoPS7QlW8wZYN2nbr3Jmsbmdj3bIjtKmjx5mVpd0VO7xu06M7uncNCk04uE8MT/xYHug1k5pri5Q97CE/TA5Fi0Vdz1GiYg4oeaNOMcX89MPOQj/JKCzFQwl6Wl4xX8t2HOEAw2jAMyYSmLJlSS6o2fvI79iRRBmu/+241FvZo9OGLLKSFFRpcS3+6sMCtWXgME+/5t3QfsEK9llYdrFzFAs4Q60zwi3kgHfmnkKeF8j8hqfVUBktnDSKAnkcYtVF+RSUI3+bwLQDSsuFclPQ2vr12vUdTEuqVrk+4l6Oy4qFJCWhAW+T7WffeNaPTob0NrazD5couMFzIdRNrMhO2C+x06IkN7Sz7Nk/kgEbbh4uT7bhaQYmVyKXoBHk3hFfL8ZJfqAzpAXVYny/8BrhmBX/ZsvQX6OgsYTP1IP/Huu5pueNLEjbEv968ObpEJfGF5r1i27WMb/GD4EfY1vCjtQaJQiHbdaE/8vE5+hHu1Ndz8zL/2SL6NDxoEDg4D7AyKunv3MGJJ2WFnUdd8xgHabr1soV2hu8rnl1P4VTNm0KNtJqlivWdKNwCKV2H4bWwOJXFJzH+jJVEzSkPPW/+xLHVWpnep8zUvejydYtxTxSwnQsnUwIWtPD/SPYrnYnhVbm3nvQ90Z7S7qCemDDOpEtmFS05Sn3rWbXiZVM0HpHET/+f3XvfQ4xtWVWlCyB1VLv813zT6ftqSy+AYSth9ybAz9vJ2Rvzip5fivFJcJa9CtW1wNGrMDfIlpKoG1HmCSCgK/JNo/IO/3dOf44QvkCJLjP2GG8Qai4gMJoXQ8c7f3tj6/mbPDo8HSoan/Ejcs0Fe5eFmtV8kEITMq+hlbJJCELYBUOVxrVj9ScQY9WMHn251TuRtcXRZqqjelkrLTmKWccFsnvIRIM0oPOIRz2+Pm7j/zcH9H+idWLSHIP3ere0/UUlT1fhKApVRZ11HlYMIT8yFTYHJM2XktS/upa0/193NCCchtvbl69rgNlh+h5UFbsy8zin/bWBklkCXhbdfw/MaAMR3X8CNINl6KvY7EWgpsST5j0vqI54/83EpObazBsTQqQAa3X9hsEoXOF6NJteZ5KNpKEEWDglYuxPjZ60/7yTyYH4bbFEvxiBeOJcPCMREmThGevGnExhk59tdpl0pN7Eck+ywwMV1WowYlVK25l1eL0rgyeua9YGno9/ra9U/kxGbm7iuQWydnWAV6J5sOjvEB/kSl8o1dCOiz+zUJhjVmM0ZNyeK+Rt358t2XXkEuum0ri/0htmZG4ikH2LzIZBo/GnffLh/FTOitAFRWRnDwy3DDyDQ7eoUXg3lulXqznE/C62QvZ2p097hs5yTwGDv3nS6kDXBSlhP1aCtqHfAYDaY6zWp2XeRi76yPokrkhsmbbRlzJRe1Zdlwyzi9jYE+o1vqVcfS6R4ZDeyAflPbb/iBHLYucqR9nPPEoW99pi9MA/cB/lUa+1OMvQtjxygPh3GoVKV3Znd76yxFQmo+TVa+af97uGCt7KMde8yeds3AXbwfSXtxlvgtHCqyPk8FGe1MNKbfeRN21dsSUVNpaFN4xaUlLkQZV1O5dv454M7D5uf0SIqg+9gp642p9Hg3vHoN7eQA9Sqw59PgHgQ+xrlA4UMeJ0gKjT56PAPZXpNdrshIMj1pF8YGDWEMGCGPpLZ4spAOBCkRXvUVzPCLCLEJDPoDCk+xlYxmZV2L4oFjBNMiNAEWuUi2kW3wFSU6ThB+excBDDyeoxydmdiIfqXRG47QthGaKs8DuT+CwRjadCqgp6NDxoEDwID7AxNGvAONAlf1B6DBZLpkt4n7Uh7LZanXxjM0PQmySSMARkwnU/OgPtHz4vrdavOa90/3J2TFKyfISXkyC0GlQrLRp/yJ5ZkTR9JsxBNPy3LxtRej6NLxsyrXJt8j0iafvavS91HDTik5QggqdfBceNdmPl/fmIZ0GXMscACdBibbVJaDy7C+kwlH30bCHHpoRsUvc42/MD6etqWgWioXcV7vjagWt559KNNeJp5urRpQCWIyOCxSov9Z0zDCmuoya0rD0lMBlFGoMKbEvmG5m1gWg+1CJxxtSh/10RXjv3aNcZ7RvPxuK5QiFmxC6oru77VyrNqESEnb4Ub/Xc2E3m5+WYDcL1uuxYHQxWmZv2bD3UsUZ+sjlm9CYXkmG8f1+rvnx73XxKaAaQX8FnN1ikfcgbdzXTRQ5QXchUdFz/4NPX+k19UgOchgGvBYxgjixytcA7trFSM85WwJ4MrIsFXokqAeXz41vIsQ91p41cQe420+JJ6UjpNgdM57bBga83ReEMZKC5DIRzqgz3A+kznjTqljw/eS75uT+ok/+VA7Xql7tYkECx9JuI9EOKpwgWd5U5WCdBOsg0hIAwd0aHPhPanznyjfrxMuk8cEUNr+sYyMueKGRMFdBFwvKjvaTuqrTMNffrWrBhSjGwwhrsnr47/xKgEpWzreGe/YPONtqt7ST99ckcNJPfArJ80idjdxAdekz9YVwW+r4gGxuAmnq5hJmX0bxEo5TAnf0h6v/APgHTZl9qUweRN3qXfxCZs7RBn8XeRItY9UtJ46sHQyH+Ij85GqwSFnXN0dGmXeHDVOYSp3yoNeB1KMu0ItyEeGs1Vt7YdvwWDS9SKLz/c+P+D7GoCVEbxIXWuwB+Ad9EE4+qHnOy+mrTnCaQXA9FUSLrUAd00q1HuaKHJgCqN7H/zzrThyBLVHB2zBMAbst7JENcGc7qdnroD+F0COaemjb43DWEROm0+9IxVMnep37BGrzKbG6z2yc4TIcG1M7X6FMj5xtgibInlblpU1A03xsnHtZ8a5SYHBucRFI/CvdA4u2q5Tecgyc6ql9rMOTTn8mhLoehc6XXa9ybdzfhCPeG13zxOWZzeMYPMNyViAXo2znp4GVAj16KFr5IoHc2OF8IB9yX93LhFXC3JOBicFSK+r9WwDaEyM7mZVPIfv6gJzBn0zOEwbMBNi6qx92Xy+Ds64csENOzUepw3Z920Kpufqr+ftAHlSwa1bUu6FnxhVlRL9xavk0eiLVD/1+TEs0wwWNHGEzdJRgljVzqNDxoED+4D7Az2hyumNsQoHFHkC/btxo3IxhFMnCjjbDBPHEUkntH7r9kDsorduqoknUjOc9nKio6bft4LLE/Vh0J5ogTFw2bGIxJnZPXX2ydlIBn+79Rhan+ASxetUHW8lEPT8BbqY6hqRSNLmIO5r9ars1qAkMpThLIIf7ePNejzfg3SbpP+IXX8vsjh7Rz8lh8K+/t9TGPWhw5AW2rTZAefCnA05T17uLAeoKNuDlmpXcd812lEfsbwFnq1hq4aK4wrXZ76ILR7yKpWpmWy/WcS64HzX4FJL4rLxMNYc2pg2OUqfgto4049O+FxzdZ5y1yypTHA+DTBWD4Gqh4+Rd5eKTAk+eCIylEb2Eu76vscAQ01UB2L2GEu+vivduMRNPb0tHjUe7wyWAZAD6oBrzM3hTo5cAkbYelwXlj0OX35etvo+AUecUCu4rOvNBgL68Sosu8m4hlrZaemud6vAcjQEsAa938PdAEd2ezYcSr9F7w+KJoi4DeFq/Wfm+69w8PiW1a5GUi4+e2pkSn7nl1nIbc8pvW2YvdEIxX2iiRhvNruGG+gTDybTZXh/EM4p6usyXH/890OzKt5ycKVHEd1JqBTr42dGb8hw2wy1d/2je397Ki+YT8LWU5iXo/VMIzKoQ2mXebR6Fr78EtiltWBjLjpHvPIkOu0/02+vNoy87KdNxSj07gSHgNilBzjt61vzrJJLtcHq1GhQpxWQZqBXsUpomP1aC8TMF8/9eSco7GqNy2f8f8eNCzVW8yc6EG4YBhPFIfbSuNiblEmnMzyO8BxEitYLOOuiooJ56dnCmCc29kP+3bJ0ECjtjGHt/NFy/QfCuUXJuL2AVAa/S6B5Tdy/vYdQ4oJFSLpp/CoDMqKZUDWQOvS8HMuaEmEvrwLQ5PYPoiMl4UnDZc02xThbmWZCsCoH2refteA1+SmWzR3A8q1fPZ1xW6feCW+i6WaCT+lHh2y+UPWesNEGAcylLQ9GQ28gtFc4Ule5uJ9jJFgtRkb934mXoajb1RrFeKB40c8Wqk+pCY6BYRNNyl19Bhss0DUA6KTPdHVlShwVGhz/EkHhQUawHBnhIIkUlBni25KschOkAHpjdl5vnMNImtgR5uP6WU7wUNSfER4RbjZPdWuvIaOR+hif/b4lNuD4FsjC+pF77jft+8slS18UNFjerEe4K1bTFklxCoycJ8DqDdng7FvGEFsn7qyBFQPb+046wNBJEtPEHR+LXgDi2+ZeZ85Rwt2/m4u/XXsZlaPBJk9YHzfnbc1/MGOAjxTVJ2OJP6NDxoEEOID7AyM/buhL7S/lQMBvX6hzKE/ZGjDlFVb2AVeTaGyl3DbXC9ZR9VQAJXlzhumhjqYzxnz3/GHPiiphoA5i3CG1RBQg5BD/tMWXzcySLCA+10A+1TYzFr4Ja6RIk3Ax5E6UjWGgCmF0238ZIhUnv0+4fBaMdnPvgfVXOwAYpBF6JI4Z9PUGfJ6KxjT5HmfQtJJ4CUyD+RkZkHteSCdb4+cgZ+MibTeWIlOG4UkZtKwU02xoIhbHSB07jE8e7twkcSyTdszY7UJ3PrkaLjTMlsKeO+fp2J6OKZNpfUBneJN3O4LUN3+RuDq5bbnVSLlnBDfWcCFLobExdacLakvPKSXmE7EBJFJkJoptTmp9U5oXcpBYRD7ofq6tA29bHTariaUzm1tYzbHtvd1YI0p6Qz4huSYUHp3/W1VQcHCM0Nu1QhW4EdKMpntwocNK0zC5Nm0XhFj/rhX3NQi/SvTL+7tV6XPOs7tr4zgcWw0HS6UU45Ord/f7fry9P8x3daeFn+dsI+NbOwmhL3pJKpKVPDvpfv9MxkdxBMb7a0i/2yjWVBMeGnGoHsg5VyEpb+n32mUN+0dsgK8Nc7CBlncM3w77V/aF9Yi0Ijofr21CSwgj4nbhWqYSU3bL94V6PX/AmlTDgWfEGgeAKU9TMm2NFWtNMRNSo65iXVIkVTT2y6K4qyBUiA3rp7wspWRdxRBXbTuzXU0PPcEmwjQTRxHuHbMjyt5t4Tv7phFKF6/VVkMuEydUGf5fyxmr7rIa0A4z19P65tOSUmJdb9p1gYCwPLMTY7T+c2ACYdZMLO8DoMS7mL9sOdpDH8sDyt4nPSUPGIdgtj3xjg5UZgvBiCU3DuZaMxQ8oCB/ede0mUhEZ3mbr2y6DJTKTZObGOCiz9ztrM4YE2CZOTf5xyafGMlTpFA9ptEWtfJSpRNULe7bYCnVhneNDPMC461NeVTsff+fighR9ItaNc1h7BZ67UvK4Z3hIOiqwzkL6jPkbXO9uxOfxOw++clYA6qszRR5DuAXnnPrnfhJVwDVLLDdBQ9oS/pyGxcnCYZUBadkOqx9lvRzJr2mwPfgDPwrPnIdHxBAQBhARgeWWhBXFiioMSR+E8rikD/gXah3miPwOcJUdDsufY2ZHF+M5Jy6uMeb8fSpKFFxnENEtDMQhTCPsurAn3bp5LUAsey2hbYbkfkyO7FA8smbWbPOyy2HThNPk9H62TRbJnmiEXYwQnmVeHNYw3z2G0jTfBK29ZqQTTyYNfi4ATtl0kCOCdxrDKK1Rhd6SsKXpaNDxoEEdID7A1NuHmzMh8xZg0I5+rDgVhmiJw7cExEL0M2j2d5dc80OMHshwfcESD+f1Zl5R2wIij4xtoZB1bz8F6NAjIhEZwWM9nvkf+MGcknbYdIHcaZQ/Ta6Xz+MsQfYdI53vbfFswDjiKA6WaGxcEqY55oguusO4vXsVVU8RbI2gCnHKGZmetx80gDvTKYTF6C652LV1N4crU9/wn+B+StsrRQ99Ee+QDQ3nxSerzy4x+saQqHmol+aGeZy4lr1UQtlX4HgWVU1GYprtrqgeWLe0XPoDpex3NcDaQ5r0siWUeDSJHS4cp4QhNvSmcUziIKajWJkRXaX6V4gvTgM4sLqBjI19B+cnxwAsFjvSLvBeHzv/CvI42KK29X22mHzrLO7kAVPtKWz4n7SNsnxyLATWMbhFuMY5fnFAoNYZej7G1B4fT4PP+JHYLyI/vp/wjG92tXQlZmlGCLxZcx1ltMcdsfrFYfq1PuRB1lUlwiIMjPH6TQtAWQC8v2UUofK0t/O4MbAj5eQmqk9yCjQRPk1y+Wl/n97GET7YrxQOnONiJRgqK4gIuDVEOY/CdlBTihKg5rjSuRTbaQ4q5golWfSLWVWzdbaxsOqYMwzKCDorWY9KQp4LT9HJHJdT17JI1gINpYuV796UVG1Lca0Kid0eBRYlkgv6XhmoeOP2e/QfEsqRMtNE1xlw7wqgXVxxH4QoS7+v15FgU50DL+zDAD6cBtka2dQ767bXVFP9ounHbu2Y+Nco85kHpP3ao/ponFyZw5aYkomiStSKLqeBk7lv0whlSZtAYlyB3wuYC0hZ1DBpoorjdl8MLFBe+7cOYHegJCzrRyv9p7lEVkRXoltpZ6tcOkRBV6e1/VVH95CY0mBiA5eG0a+fKaJ08g0Hdv8lHkHKrKjuQvCO/jXME2NVVijkEpP/3ftvt/McJLovBBkYkGKDkc71YtMAPSJSFSclr8RBbZvnJ1vtVATXtW0HkNGjdGmsCxr0E2EElbf8XpN9YuwtHrUfe5BJ4XfG831Z6k70Q3VJ3wjxJjx7jFQ3F0EsBnXmX7cDzTV5PviPRuGszKWOpXvqPN8P/6EzWZJCQVju2Ov5+oYLd202mF8kBDEp6vFmLKJ80G2XBSPsPQU2tgiAtNWQ/GnhaVaUNKKz6d83LxAGvjCYfRB6EoZFkAf9EajpUnIazXpHZYdOdDXN9sdtVgXuzD9JWwYtAXkcn+diTG4hBvaXb8JmKj3DuIfX5AynUgwjnOZua6IdFU1ReiuREeYF2l6HzOxO7G6Fyt9lKNDxoEEsID7Az/rK0WGNTyM9xMsbhzuyWTe5Q2DL4L7tDc1eQRifC6XQFFSPc2YmB/OIQ9pP2LK28esby9qEnqMfIMlmjtqWlsGtwvzERyU9uY+pw8dBtKgdgIwQ6W2Ucd9kOzMAFIDQHwZOYT7Yrrq88J+fritH9VyJWAru0AwwVsTmZsyhs68v3AhAhyEIlQ5yQjhPj3BguMoaF9XxMj0MFyfgewDpzLnsFJ3RFEHYFJCGcvDDTsSpOXLeF0p83E6rPxTya4IRjZ++X2CfaLAiPnejUiER55BHnhCjNCKn86BFsI8QPw3EDW6BoBNYPZLEwnN1+Z45H2+P2dhz162f38+w8E3atLeyB3Z4yGGhE/zjPDyJbFJztNC/OT5J7DF2Sz3fxbNN70TpwjhiP0UYSoo8TEr7NSoE7nXxGlrfxv7sJ7l3IvSO7urZ/3hEsiLcza8x7FwfuxZitwtzxV6X9+Ex8plQTS9Wd2FCAP0QrKRFxQiQwLr0BX8gUrtfZV6dBA/cxU4WDpS8/Yy3pBX7NuKLDLHIXiS36MPm0cMsdMJOwqTdcsZ6bkBF0fll/1sIjis9Wp2heait/11sLQYfVA07PzQslErTgNugQ3iCvKwnlofGlHkkDdEBiIVEfTCkFy4e/BvFufTA98pkQ47/n84mvTcyEpdPVbP2+tBfi0c4CwTv/GFKn/oJ7o4B5NEqyx6P6F9p8EB5cSI68QYXARWPfW4tyLVxNE072kN8tXEbRcHJtEeKTib4P8NsVT8gRHYvKV7o+0mJTO1+Yh3EZLgoICgCpmUHOwmCcC02V6P/TJ0/5kROgBouZbjvPR52B37O2n7qDFPn1zfL79Aw6uziOi5nA4R3zuJRyANAmb7tELzFtFYsi7gOarpezvnyAkx7gM1dZ8F7L8hmQuP97RSEI3wVpW9HW9U3QNCjRFtvnXw392ukcaQHADJjjUQP/06bEz7JyREjK2LuCEHJfGAeTZVQ1xLWSJ2VIrSsUvQfTrr0WkKEcRi9dkS4T96C9c/8MjSFMfnlUi6Gf+fiCcLqoeJjeC99tugPqI4WvEjtRQaKbaGVdelf7lhdITiIzmZUmRXeZpxKX0RTTGRE1dp7kAgwgC6F5tz/6W9cFX4Nn7nZN0/yHJ7xM76rztRklEKD5tiJOWDoUKzBEcputlcF6Z7Gy66v/J0QuJ0RV6OODjYkqVFnftcDz+X1K11aCHanbKoH2YlB7i3f/7N2cdlY0+rFmKjTORt9w26rzaDwjITXvyLOkwu/H5b1jWECGuRlfjDEKNDxoEE7ID7A0FOWXhUc0iYFp03UNG6iA8FNpo/A8GX2lSGy+pKWThF4VeQ4h6J6gjDIV8dMfgQPF6goluEs6EkeU0G0DynTNU1NxisOz9R5Nqow+r6fyRHWTUy3igU+iSXQNyeUgG96HHgXgqw++XyWPatqBu5Q3NhidsusGTMDGs6i8O38svtUG2csSof6sf8KgzlGTRMPki+NiffWUMcZOzkPhh6NVbCiYyDx20+6rV14RA7DKk0WFa4Iq5dJ4EGobF6jIqvcMQg5P88jIOW/ju6OYDzxqJIp2G90JJOY5Qs3YZDNladDZ1WEmvMNEVj1O2A6An94ZHcTYEQUrF0cRa762BPFaETdBYcUUDrW7+gsAOjxF8YHPRxIJlatqF4shFmZqZXqHZKPXda8uwsfqa+ApKeSBttWbqpFQlFn39+BKQ1OzB2QW3NX01BgH1RZRiUkuvyae9Ow1E0/Hc7RtDga19eD0He0yKymeVIAzFQXwdQ2ctEmWcQSrSZLg84Y3nTQhuuNk6sVglKzDPpqR7Lhhew1aWR9LPTFBK6LcNcb9o07/I/J2qzml/qLfim05Gg178L/VKYRjKwM4Re8IydkGVgnGGOESp6nHHZ2GDlZ6xk7yW1LP8j/dBcu+hCCBF3m+ADXcG3xbCZcHQ70aO7sihhchT3fBUjOjj86HGifya+ZE/+ADl/gcgkdUL4T+oT3QAJ/YMJtmkFtzKXwcb3bRFmnyfEP+w039E0aOm+846DpPwe0YLpn5L2Mvz0U62aCKaMaVDTUXNAIPK27sGkOB1dnwdPZB12dMBz99wdQlBlZ189vhEjHOUwOIhMCKKOHfhrNe3omtp9p/wxYlfQCxxYPEUZ6Gcw23iPY7ctWsrD0rbdDbAugHAkr/j18Tamt1RIYmN0IHRaTRrCsw/pxacxV/vYo5meLXAe4A8oFi1czbBVEDhdT1gdJTO/AF2DclEqMot6jRyDUh+gyVt7egplGjbr7bJqF0aQ+9qNL7sv9epCTEJswyb7VkfRrFzZYdngtjrWP9kNeInTcJVw5JNkcB0tYddrTLYq64P29GjULI5Rke9+0As2/cgRaFP49cn4IKKH7TEfJ4T4al4ukcnJH4BQ6qsYVgeNVF7m1hXlKuiPngRAcB7oKoMnJUGckgnWaOhChpr9hVrfz+5Je4MzlRi6aNuSC/QEikjvHfaAFdt1ChmNq6i69ecAP06u+s6g17RI0Jc4xHMz8NveeZqAch3ozrQRIm0fRDUJ+RedEuCr4ELyndeORduDerdde85B0qNDxoEFKID7A0EWtClvPVq3u2/mgfF4ebZAwrVwODzhl6l0+n61OA8TSqNoPgO4oMLN9QpBChVa6NMb9kzn4Doo3MmgUiJUqUd5DWl3TWKzQJc6qzQu27deT9d33XP2v6Vr0AdStnHY5jzAkEW+w485BFcU30CzDrx0op028oZ3VyJ9O/urabIT+5TcQ49g8aqoGawydk2rpI2QaUb09wAG5FSx7zr1emfByXrQJawz5tGaNTWp0ycl6r3T5uHm8lf2W6T/cD9SoOcRhPT249lGXupyxGJhSuRDT53/EyxfqYdSYhcmM3jxyjNdnzWA58u6GmbpSQzDHFfr6A18IOUGwe0sIb+KyEJNQu+4bWKV+JJ8dagNGXvcESyf4p0GeRAoI3s5EcVBKdsm0Pm3VffRRqcdz8tm/Ds+Ij+T/D3u17XVjqBbTqF/RFOOrkcKUvrC6JiZ/uSSClXnw9YUWoTUyc4Tu01Rl9Hrfvsr6lmDiNkdbgwk0lQXMIcONy2BQ/DBkLQcbOQNLQNhWBUc39oo1mX0kkwxq6NwA4aAO46yReqj/JNch5DeDVS9Gp9Jvp5JX7Ml/hm5PvLTWcYqYRdrhUxytku9Vbtro78QoVRAvR+jj1FlamCsCYFixt4hl50sW5fRjelLWzgTexPXG26WPDdQGZeYvw/WpUzaYqg8lQrZowNygTibJxCcSkO2cGgZ25igk75cEDiEVJEDtL+9DLHuiMFNsbUESJZNoh4f0hwLp1vB6yyDmZ+auDKUMGnoNyO6sgFAQQQKYYBgj63/zwtcLA5qMgfKGgD1BpgGAApUnSZZDAs6O97gIcJJwWBtfYR/QvUbLSMvz7g+CSzDoZeUD+vVl68ZT7K2W9XiVzkYKqaO4Xhnto7UmJOL0d9I0nRQO/2QrhH02YIFM5iph5SYpGrEZlSvmfza+OnG1r6+2Ptif6l5XtXCY1c67H0sshEke3ChkghCsiX39vF21C3n00mpS4VOZXY5DMVwEOpAYLjaxrSP0nW5Ge9HlZSLFqH6NoSNEuLP5Nw4lCnl4wFHLmb3it/O/j5afPPnSIuV7X+EcUMtffC7XRe/+6ESmE3U2hbztMm+RW3xtn9lviAbSSde3r9VyRW87d1A2qXgGcnq6cWa5sSKHkhL86HGgn3qYMtYnA9XnujH0UOw+qYwbxiSLx1Imrq3odHYWI+HoYTYPolyGAd+vnppts85vq2/mHWpfKrq03aqFv1khlmO87EC8SNDhqncC5VvbNvcPJwWhTYTGtKCQIPULxFB5i3FviHvzKNDxoEFY4D7Ax10DnATZ3TVNFFOMUVo718I/wWf2T8PoZQxcq3Yy7Gez/aCNirtFi5VysMfnv3NC6QtwTDERI00889UKqWFvPDryMS/R5tLdhIO6izIcufQqA06EwmaLw9nMvhTUhPdk9p4IBg03BF8a6TfySHSubk4dQ9tFcA+BhgbsT7Ur7Ang9l8vEV+K/vNljtXgXlLe03PU6jNWEnQ3oxzVmlyKdiiid3JdnA5P4rlbHbmMARj0ovh1b4ur+9VHhrF162DAcq5xfRX+QetLUP619wMmPXJ+sTTb1s85KHsCKFN5Iac1AM9rT7GMtvndgQja7oldJGkThMAErveOCPho2y1a7HEhfBQDQRanBF5gYZ0fbUrwKrotN+GlxWAGN+/fZvfjPNddLW8lz2kiHDsrHqRnzHewYnqWZEbWTeMNY3NNww7IcKY68NWms2R2KyxyqUdUoi02KT+fA+HIt4Nic8/E0quFXRQsBu7M2zsXC1wbiT9YfbK8yeH9myw3C52uZUse/9snRb0zH6obfwYx94mc95vlQvQX14dvHXu8ESrECIHtWBewYPuZdG6663rZAlfVVW6g1XJBGHRN0sXYsHsECb49PYdxn0+VeFL2E4b/vRAydfIAfiBGhluhYqjmwbXzIyxvtTiLFwubEfEUDq7DBFifWlFhZV1lCNuSOPqFCljiLXpLDQEWG8YcoxEEKvmONfb9zyWhbm+biaUxOADLVdeUx0/cMUlXk3f4v35/HDU7eSvCDa4E9E1ZLgXiJfuzDqsJdsQHT5ohKV6O9j06jNQyhkV58ggdQOoGKWCM3scIMLyz0yo+xCGFFppodISTIzAbUleKgwSh0LLObpaCc09xfyqWUofwFz4m9qkde4vPZnmnSYIbLhQ++Bu07knmsuptRSU/eSlSEkLzLojFvw4AJEk5oJwPCH/OQY1Mp1rgOsiqTGKVlb7WXuFYz/xlBKk7mpCQzm94pWrNiByo9xneV3A8BXdYfMkrYOvhpxzcq/32HcfSllGHCVQOLJYoLKh90CVUoc2pNfenS/Ah8OVwmupvMl//YrLqGTntNr5e9WMnXDdRIuBCiJMC49LbEoARierm/w3H4ofumH4VclY31TqpMf1SSCb1sQLn3zSzEApP/AlisE343/jglxlTb+n2RChliyi3CO+A/6/6ZlU+xvElhg7gnShgrfN9DPD6R0gBhTA0dBpuSZ/uXGWxit7ZrYJocgeLHuVjTvBTkOzCRhCAlIGiLzq1C5HRxkI0T2fW5KcFPGi0X3In3ZGDaNDxoEFoID7Axn+osQDyqfjdCjeinjyym3O32D5gaXRXn6E3F1Yce4VrTpTqQWleR5Hw1emdFZbxH/3rz6j7gHt5MgpfuTD8nHlw3SST0cLdVVUmYXoxFKzp8TfMf/cv8Xkp+mSAte+jkOTus0UUKg7gUAsKmr3HrxN21QrZbt6weJHZaYdLmb44LDFbPhpm6WtAL5ZfQSV7A3K630wIbik+6GAvSI3TXaop9fsmLZ4C/YwoiS9SW6hym9Xf3lvlpzcRkfS+U1yvOzLZrckB7rXIhh3VvTdR+ZS3hCZF6MFHrHkF/gbJI9w9NzMCrN9bOKsXJtRIsHLaksqk3/aY07WGaH6Xuw23y+9p134L3Y10zuxxJrq14CUgWF9FMn5mr4Qkt62N4PRyj5LTMU3ewzyNTOH7YtTvDpEztGJ2/aIA+RXF1auxhCvQuE2z1XsnEFqcU0IPNCH4tr01ZpIPQlmq+qlxMBj7OI1DYceIBN+Fpc/OWWglIef7bLn/VH8/C9d6L1lWUJGAecFC5bMzBnflSzpmo/n8E0Tbh0uHmeVws9aMnkJTvDzw7u5ZKADC5z9NSMylrX/huEJP15yymb+CoOlAbTzKUY0wDqwpJMDKbUhN5iK7CGlLEHABWiQcZPpszWOTvJCCO0OMQuDRvKOoS0wGwp1h37zsa4bRKUJOlwYlkFutUavdPETo+kbW64YiGQWDrQq6s9O+ZeM2oIbdI/OZGZG7Aa1UwYRiJV5sn1xNbV1iMDTghDRZda1RWQAdWoYp8UjmR7VG1nfejedw/YgVtHlH6cLFub/tv3fCMBkslWjbPLySZDZIpFDxpLn9MWhI1tXkjVc9JXDtwAlqne4w6XfZjcU7JFDXZHsK4dAwCN8TIdnw79CyK1nInVoUS4oUHtdSar7EMB1IFNCQjTQ8qGhEWZXo0NNDH32W5aLTlW1J60ThmU4UYxsfXE0uwVfQfmnr6s5XO7khVrqc87+Y1+BIWp01RQnWD8g8m5d5zlhSEyMacJbOUO3qAoTulIJ8AT0uyfHu0BZkvpcYBkj3x+nBAoCc4rY8VhaP7DSZdCbN1zDsktWiGIJOxbM3TkHqrin5C32ycQkqC41PrjriCM3XfGnHcIOvtmEnK+dkOO9VZOZiJh5ssGAVKsfiJe5z4exiyP0NRYYOUAkpI6pkmcGiqVc1R94B5Qyz0f2jhu2ai6VkBQ1cXYhREz8y/7EZkbL0hq6iIdNuHvAUwAIid7TTk31IK4etJ+knCyV+7kVj/wCyrRxXoR1jSXB/sEINj8MlaNDxoEF3ID7Az94UNVWr1eKNQMumo5UUzQVVo7rAWbE/inHArA7X0bIw0BvgrnfnkzJ7TmaSU69Q8s23dr1BwIZSx2m2ZsrXnIPNU8dCKdDYj1bPPhAJrGTR8k+qq/NX6FySq7Aerax4DriECyr2PeQwHEn3rTFhazmLgzYmt/48H1Pf9YCliurm8vYZpBU/QJrYThkuqy2BRhmTzIRhHviuJe,
kE3IyM5X4Q2cIdLjzQRju3HltOA2dZ/bw2zRjTA28WcbZhwh+aiDJLpdCamb8F9WlFwN2nLZsicyfA7LN1v3HnUY0itsIZp/3CKS4pyGUK0YdJGJzX0DhkmeC93evdyWrjDLHslsXbDO4da1Ih/ahnjacsMKXnXKHNK2uF9gLlUKUTD/g/b3Kctxx/GSU7Aoivxin3e6zxN0KrN6gYlg2oTqcd0pQRgb7PkmM9qYo6tlBjjZlfZMg7jU39WEC1NMqJ9/+fOY47fcyxiZrJg3M6K8VMm3BpqJBdgBNYeJGsyRg0mv5Q32mfUfeC6zXlaW6SY5/vgNe0NRjKT/rg0kLOjkNpLTEA/wV1B1gJn1BK5P1cyI+jJXtcrAaW44SF6AZFUrTB2Uvj0lY3J2iB2VMb4W9kPQAQGWnOXIF/9PMWTk0fpSxu7SHhLyM/cKtMhD88XOn5UXLuYgW7iS/rytBX61u9xgyVAB/eoq7behiypWibEaUPjqFLYdK0hM/3cNGRBkatZ6A07rzDfpmYIoshFTEKCf1f6OZ8JVRHxmLGqbpXM/DXf6oEBnC6ULICyu5nlZy+wHuXqNpIavDTNWrJf3rHa9K2Oavftalc3Dui6fmcT/zMQdqbR7RC2EfdeR3Ocsu24ja4A8G1XhTJ/bC7IeYvdEOFLS2KDL0Qxfdvakd9U/9SWJr/2R56b7NehPGVuCG5hEWgijcemL9pbI4ptAZA/KUFUgXpuExsBvQ+ITbqq0aoPWR7xCZbG+rgkDo1asw/yNnutscupV8FnHqPuTd/cg4JWBuuMdqqJPEvzYIDmm99676VS9tcionIy+cRRQcGS7zkZicm6jdK0sfzJTPRlscZSQ9xGhA9LF4xHRs+Elz7WMD5cOuGfeoBsoO8qif3nBW5XIio4jUfgjmqIM61bcah6iVJ2e17XfLspoJEgpUAaWnSBHiSLy1JQFOpCW4bfEEV/fYA+Kx8dWt1e7IqyYQGrdHQAW9/WBSTthJo0KIAJkJnmGA4Y+Uk66Glohm02SQfBXLCPrI2d8JyLMWZG3b7XYNHicbzN5ZS5UKrrEOKNDxoEGGID7AxjuOYjmheo8s4aKlUz12obqHbedvjYEhlcLFn+Cu3ialclc5XwSTu38bFq2eIR+5MeygPKaWp8h09ieqhgbJdpsvAwXnwoDwdWcHFYbATdqvT3szW6N0+F1SWkSx3wp3EvCwLOJJzYQL9kuOfFUFoGMgLlaO4z8KLeZICBhIh0bbZ+0UhHgqyYluG+K6gK1g1zkPqAuG7PZe67qQefcgm8u7dumdf0nnWJr5MjPo0ttL4aBWy4p5JTpWiZbF5VvZGZZTPxDbk19QcRwCVG0WBO1wC90mOunw9f1yK1ga0ZohooEsa6iepCAaWFzcPhp5vG2V4DD2pfIyudMk6Oxr4xEEwhvfmCp+AZzO1KwIkTXsOm2Titkn1Z4CnDYRpJLDOYvKFY14bfJ/7DO5MYuIsM6STu7ORFk85+1QcdXDs87UTc1cZBjn2mS2yQxhxhpn7C7orHVOkblV6mat+io/5ajWglP0HVXmql2w3+00rN9+Z0pzEQaVRIwfXjde5Ev0/P/G76lU14qboQoOOX5QbI2sAiShsQzlOdI8KV4GePDyVB+OFr2SmQ6QIbeWGp6OxPVRK1qwXB2ChJSU+IW/1uAK/BIxroCG9LUHGkoFId1odALjCi+MRhM0Hsj6NvX5P8fB0XO0ChHXjTQaiN+tl+oOuxM3Z2jgVyrAiHbaTsfoHw+cZ4fdFaolgfaMdHNKMKBmJcHPneLLLT4mvsHx2qaearqlVyRfNMVZeyY3ufPDvc0mUD+8HmW3VLf7XNhIxo130CcQ4vxcow2OL8u7nzGUiBJUokozxoc6GRwuhAC7fpz5engwmsCGE+INR8D/VjxMg6xRlX/of0GADVt5bA+on+42A/IcPbVtb2jEv6sZ5tnjpO3x4RljJhkE5W6qyQdu8LhJAttDm1AQ2AzTQ3xBLz8DYzhh7w89AKLfBlEpULZvlf/Emvh0ZoT1Oo7FCvps9oaQLuO1w7RgJ9JoU9ZEFJa70whcZLS8IsUBAXnCmB0eLq28Yd7sx2Pp3ZKgnG63JIvWUuPI7db3ULQlE9XffIYlK1q5at8PQo3hHt/xfm0EgVeFSJkRryi/G+7Xr7oTQ1HNfq3Z+l3CrTJkk0fbxmcGsFFcrpJu5sx7iB26xB2DNMlEAWVpAAmnD49Hn7NRYy+1UgqkJ4biXKvnhMo3pNHU6K5XG0k9jv5Zqszf0Ep0/Q0ZV5IfOeVmbGaLox6xyME2h4y90d91aksjIAz05j+DdyTz2HEHlP9yGUyFh+pEP77UxKoQNVvwbfIBqNDxoEGVID7AxPIUUdQgQVTzuq2L0elgmbKiiD27GsQliIypiZxDWAm3yust/csp77aYIR7oybOq7EIwFLMfYJN4wtUaj/E70YkXzuRphum7mbRLOZu/8UfP1LP2XtMomNzmOdiOatwIFhjJxHsBmIykBRe08kXtvAcKT5zJruRUZTXey55dDfav4UDHLZavAATkhaWIc9IfUo9iKxU5fYqSTHWVjtSkGdeD5+RGy6EySul3GqW5GoEWJbHpONj/PEAbSlrTKhUwgHYlGvrIJPbMjTX21rJrUgDHVOy5cnn/LdIAI6fY2OEFeTGSZxXS8lLHOGRtXJdif5FiYEdudykB//Dfbka6dcYc4v81tZgZtT0i2j092Widve3lXQMPVWYP1FKuui71L6+M7ofMjG6m/nIcitenO9IWsQk8sFDpwpYhaEEPS2fPBsrjQ25ns+9nof9UES5RgyJ8Tf+dlrtD+C8s/eXNYcl3Ei4byasBqXuOsAWieU9liQwXvXwFte7MktBul+HHdZozRMXuFW4ZBAGA8FIKlAAS2p3Gb6Kv85yIU2iglJhms0lMLff0WZPMt3KwHlW86t4G660B2UF7VKRjAGbEflusOYJyV/r1zBIgulNTKCJBGW/zAKhTd5GTWzPyTCjW3JuzQ5EbgbV+JEOiMSoCiAf515b1K3OJWFbfI8TP0VOWDMLQCVnHbJu+2Y3wmR5bHOa8I7B5i+lkidQJJPEwrNHINxUrWmuxCBNyO+mEOINYcYN0UswBPnBBaAzeJdkqRYmHJXWYq3OSvsKuCUewaD7zUX6XoJMNzsNHb/ARID7MWHKIit7Xcb7Rp6WvJ7bQzdTvMQJCSEBBotpBdMxjQUUJNWUiIXHitF6bwgctqThSD5nOOFHrvHFoIphnCp6bVHbpZtD0bQVGCA5Z5Yd8uuuPSKFeU2MIugiSV7DHaoyQJ1zhbg7slHhZzAc/jLCbcGKpBMRhMYHOLMA2WdE9wJP8g0GEo5VBNogWoQMkIgYZTqFfTBgnpNYlkDACfk2qyMJachK24wbkSNpjO5qh7Yj8jY0mKoZZSo21CK9CQo5SfIdq8J2oLLg/Hp6oq0kYmPOLswZiZWVso4mnzik4XcSW9mxNFzzaclPjpqgQISSu/usPiVBr0W0OAHgGBfn63XyLyZK6tJetKZrpgGz/Edsby3maME2rBHxO9uuj4kO6YbJpTNANfYf74NIezQP4z68xFDA/OK/Y/fRDfU1d/dgHO63PRYKoW/K9ew85nFUHIUOEImjnqToMgZlC3RPe6NDxoEGkID7AyKxW6vnHUhONXqTtiZNkLbiTYjoa5ZQYAQ2ltfI1TFTknMA8eoe3oZJPxV/s7gDtfJtOt+JeqfrCYUwXXVgkVs4B/8j7ybJkaRauWvZoioHED2q75lJ9qECMsDZaXtSxc0KUKqvbim3I/BjZIR4m1ve0OyZzAgGG3nKK7I+bcF+2D3/tfY2K8yNOSIsCZSrrzs/oxGuAQjouVzc7bNFrFniv+qjS3XMOz7IFbCRdzdSWixFIZxFFgMR2uv9Dwu07aZd2WO7bdtF9RrjlAmYJijm1H5v6dtiIXg7vGGZdGKbaaMUkvQINP0YhmVpZMKkA8CjBzBe1nPjLnXWY3HGDobcVxZhXaLXukKszOrljBUUmLo2BVS9UZBcW9OOZaGNG1kAnxYkmYUH2pyzOVWKzvSIwJ7/2SMEFMS5VKBRs+MfO9UjogchwFcoEGUY+iiMTQTzvkT8ecrxUhF5MUjXcY3R2+CXzjBJzuIKlOB4YyQjPDZvP045pOmCzj0z159xDBw4+XoGlmSooYMOls60IbFv54fJdfmhr70XlF9uPZgeeu2Zp+BddJNrgRm/oKkg9CWQ6b7CpB4wZ+vB7W3USZj9f5UumlmnGTD700VvFDqwPQouIGp5AgX7V2r504P9Ob+m9Y/Twtl91s11XqaK5mz5jrC66Ea2B5Lu0D7zEpybSn/9eKa4+nn7/pq/u+4O9vwgd7/7xSt8BVLnBh7jdKbtRTQxJcAKr1yJFYyt7JPZ+4Yka7UQeLFDRKmdTWJFtlzdPCwj9r0DgfBHZp027S0FrpdN/HwvbHfUmpDjuIy7pu6yz8kO/NaGoYGDaMGvSUu1ko1ICtU16RhUYkXknX47tzjgdAq7JuW4ab/jRTHYTy5zZOQXZVCJw/1bgCjWhqiO9b11Cl6gcmt+i2aOf1ECMbjUoa4smu6Nl88V4XOgd7AfUrMLeTHReKS4hwvvs6WrOV6z9/vZEb3WxdGdNkgdYENZEoVj0bBeQGmozIY82O7X6xEdlqOULCFTy+7yX5NBtCxfFMKR6PUOvohgAYMk8EPT06hVtJ7tNW8gW1hnxQo2Rf55ZbLgTOBt5IKhyW9ecyS2gwPwuoiZvExCuEHcBTqbrspoFyS37L0cVqaTqyZsaVN7qcoV2fBDsYYbOG+qn1beszaUObIa9ZA4L0d+1OB5ArWPDEU8LZwkLvsadGZB/f+ta4mlgzNb6ZJllCMaZvqrElamyeQeBJPxd31tvbwrUemWayhSSX17JI4DXdKr8xfBcxS3dFur2tJJt6NDxoEGy4D7Az3K+Di6XJchEoxb2fR82LP627oLECM0MwhtIcEyOZ6xUz1uSZ5EVAyZSSfbMdEruu4hex592XeO2hNgV0B4zuWdI8TOD8jdqhDXR35LPS69lsxK2ccxGNnIJUm45Hq+2wdpQGH1ubgjJbmif2ye1UYiW1W1jRBhLf301bzSwwsvAdqbizAMgL8OV7ykfMpxNpGDweavNGJyK+lkmUlU1p2oX6VqzrdJgjJ6rQvXBin4sxmzdFwf+q35PWPQ64tzq2oQkZPkhdlvU6tNfsCSPwxAHlvpZNhNZinQNvl6t7AS56kJKqhzt2lMQSFxXJMCbpoqpYNO6j/kxZmCDORfGPUllW6/wq1jMjDL8ydafVgT5n/rETsdp4q4qwEnXo0Pdfikycq0v+PlBayoiBno4pRBWVPgPK1yJMnnO2zZjiAiO7CzrUKEf0dbyzxw2Me1c/adGCb+iU+T3SoTfBMcOQP3U2IxZxkDFWFKw0xTdisGtYEfm1FSSLOVsp9ZCsCOgnYSxgBbs1kaPFNwY2qBLqu09FeF2yVag59k7uwNBZNsBQ1050XiReVJhNbpI1eBwr4AZpq72BOCW5JukI1ZQqUkJK+UeBbVMx/9ORlM+ryU7SAg4oGvxepDy1xpxqEi7/RdhAXM96R7IwzXDn6iDusUWTi+7pwgQuWXt2b80Xw1Vw+R5jv+AIWfcZaA0L2Ld4QTYOg/T0QWVjNrRe+U2xwtOrOEX+uNhEvmvUMz4xnZWZR9EaKnIbJAOcmazhIdxrHmmAgHmHIWcH47Zh7FF0WseOO9Lm4o/LT1TZVyuUL6IDcjZIuSXtC9vNBWtxbNL3Cj6BUPhrIl92sN0X7IRWIPowd5oO2LzeXfLTenAB4eVdQSJCOxY8bhCfPfsn+FeXTb+e116fnUznF+OO7a+JnRNgcce+dPBL1r6qYxTg/NUjwXiS07cy1ruduZpYxTv9kOm71uw+sIqn6bradgmlGu9gOhmrjnqGmyJMOedZWxJV/K+QYeYA0YPHVVfl1oFFNYBxPav64yTdDrG8MWIlaWELQ/gQZTQtWwQUPKd5FAwwPJ8SQX4dh1WmOIrJ+uJKxesRxNYf77HliuEGi7diUzRkApX26VRqtuDswsi9UP/2UHq6TGO7HXO4fIfNTjXv4i9AR7ZdFZZxXD9xzwNt2UUaywdLp4SEXMQQiO/xI3nqNbppzt55HmZerKcu6rWoVpyt2vbu4IqABI2WbP9xJCYI6QSO9kkmHIG6QQEyynudt0AEUIenKFUaKp3J28c6NDxoEHCID7A0EGPJqs4dYn/NiP+eFEDytKv+BskeRpj2u38US60H0ljM3abCoVuN3+Yi6lQLgsFcm2g5dJ70mOUpfEyL8jaSKVxtkN5FCzmSUUPeXFxadLierTT9DO/vElz3TkUNdFG+grqzk2rcg2OiRizKVbzaFvnTK2I7kyUOn6qcrLanFG1AqeDyPPZ/pnmUqrx2Ej8iPFImFP5rXOzH5Gup13Jm99dPHQxSChvj7gKTyoK+rgLLWCzMWAaulmv4G03rGFfzbExnO1TaPD5HZBPXRZdXXliY3m0QB5rLzUy/C7XBrHmRmVw0yneSqdOYGVLhCQ5zq6y+Cox1EBUptMWlQlP/3sEFi/voxO9udgr8pFskbR3DTVnlI0vIhWWvpTHS0vb+jgpLOl7OXoZGx+wPjhv0DJyjpRuGT/p/cwjx0cJXgrPlqf+NlFqPpU9hm6r6LjKF4qAUJ1dWdx0dNyR1c1Riai6pqRMdiqQHnn5dDrKVITHJ0vu+fhI392RF40O1MGc413FDbskT4gP7/v/ASxvr7X5wCkNbQgcnd/OT+OhPWs8OG0ez+ZcfbL6GW3wUTSGklXwmczDX54anMt5IdFBwJmPL6xczodWmJTmnaM1QW0yaw+0j9w8uUxf35tTbfFfxrtYZVIIreWSKJwcpXungiw3a6prEG3Ctmg8MjeiUb3APMWrVCdAbPwao/uv5r03lYgjC+vLja32DrMSAfC6Hx+UpQcchYmyxX6/NUU5oPry6U5nOixAXqNOG8A5pJAS8deflbchj+qZzZoON0pTEu454WFMbpaxKJqDPiEsqgD7EWvGBs+laY1VK5E4cYEAHvymDe8AZpV+yp+KzW4ZqkbUKBF6ihL174grsFiOV/BDrIK53YYDW38WkQMjQsthJvET7eHM2H2ROrSZg+L5ImFgAhDBfJVfWvuItWHRLBd98wiQe8M585H5zyOnWLBPDGZEs/NI1IUEmOt46sWUx3WT2IbyCDWNiQRF8Q6PwhRvoNi0ZNjLvMnG+e51X89vXVPm4z+16uSyUQhqlT6DwXqHEs2m6lx4CEtJPyjjMbgtrwXycCW2j8YNWaQ1gUXDb3bHQmTSmrcILdx2Uc/YYDiUlCTA3ZCQU/2WCa568fDPkcmgTUcVm8WhLI2/GwkBOhiwy0irqA9CmcXoztbN6Etnh4D6hz+r1gDhL3V0pZyMJMdbF7t/gXO7YZlZzOzJWkHGifgAMQ1PWleWEwn4PO/04lr3jq3c29seo1sVA617ERYoIb69ufqWsxgjjuK8qNDxoEHQ4D7AxjvHvVagaQ7D5V67rymarpnpNw6Uxrwc8mpAh30eI4x1L/7FHh8UcH6zeC1WXhEZOxraQxsvA2Po2X4ngzIPYTxnzGf2sF6pRV3sdoaB+iYOUoZ+FeOrLFRpqPQZDJtMdYc3Z4stqOmHxTWWhtmjSUrImbkFHqSQSRExulb/DkdhU+w/Hm2L2LImLYq8Glp8BttFjk1hWmAzcTliltvmsdPP0Dr7aNnJ0VaSfT57khoonLi4WY1wjSOvAvlKfc7Lt5/L7wrg26dSY5LxFV6cUnLaANRYjZdAGKDoTE3R2jfTEHlSChygGxPcQ8G5PLBN6glJ2HYwh4xxPZuIdaAowUfIKfy96WTf4vksV40GI1mMzWT86PUr8TnAS/YJIsYf9wqG9F6TJBvs/j/2q11ILbOZGmjALdEVdRIA/OJyItZG03wWwVIu3/mEqpCpCjqihnkZeoCBsRvTp6K2Pgd+AeTIOjG9GjRd1W/a1oWfqLGsib/OPxRSzqnx8yaeetAcIc76l3tIqXZv1w9h4Y9025GIA1BNerDM0zJGLqoh5gn2RU8GOc0424eeBpPNtA2DZ85dCAJzLcUeowtX+GNY3q+fmkEUwFocdQzMtwmeZIWynfOaDCTPb7rpTatopuqEjXJIX75SNLcbsXxvSHHCX7jcrIrRj6AkYlUdWN8qTlIor417RArIaN20oQVQ8QbCIrruFnfmjxQKoI3FpwWs+LxEkN2p/FsOmF55bT8rl3zSxkfcmcWqe4K8Gl3INCHDuUhJ0fpgr3pvnUQRbKWe5lf1kaaKiJwXo834n+YhJ4qunL2013mDA3wDvCf9q1mkP5A9z+Fsz2i9DX7v05AzHM7xeB6RfKbmCpMcnP6K9C40CsKLtm5hjE6EhZbbJAD3RW7G7qofOESjsckzWu7GiAhIpFGRuJ3qUh3t/sdc2nowx7WUGq1YHAMxgsP9zbfIJoztgVDs0J69Ij2IvRm3dt1vq+ncLq5NsURHdumxzYNjWFEa2MPtJ92uPRE50EZWxk+ecOhYV1GAKcK3jXyRdVl4aYocFR5vdQAwmZtK74mAaIdS4Y0Eix8XjaagPgnrDM1GTjmbn0FM4LaCXY82Fifg/tlB8tD1abEZx3cU/J04Hv5ppv35B/jDwXAb0MZysLaCYYsleGcJrPFlbBbiuAHqge5Tjrr3c0J4r/ihau1Af2ij0hrixxCVBkz9M4Zw0Roy1rRk8EnWaJhos7SAN/Pj+sagvHwFqX6byUBmvZyQLrg3tUbqVarQv7RE0G9fKNDxoEHgID7AxwzYVVq6Gm+RaPFBibxBvpGcxztaKDeGa6o2j8XDdoQkLdNZHsdelRo//goiLklskh0lqlbEEBTEf+Y14tf0DFkoVonNAdQR4X4e58V0Sl3z7aZIJz2rZctY5LEFxWcByO/Vo5mL8MoF1Hu8FVyZAhjsKtUWMwzJ+OUh3E/qCWFlh2MYh1SlhltAS4Pwzg/+BGYaeo7MWmB6FGP5/yMl/cVTIlHr3skmNdGVLj4on08cUNQAThyn5+vku4EvcEeKZYMY+lj28hU+OiMRT01CWp+qEN2W+8KDeGePYM5PFklgzgjhYi8Go4X0lQZ/DeXGhi4XgC2Cw0tOZavVsS2MUDC7pH2t27zNPBVtYGZR5AFd4e1C2GjCDxk7etrnSahN6xGEH/SBfzYYrgf5z7owKjgLtajuMPaQ8hIU05jZ8xzECPLCvOgOnNAY0ig4we8Otm6VcWG+8xQHzWvGRl80qIgh4RALCvkMtkWOL7qnA1uKyOyqFczwfHuPDjS9S5ZZ9mQgaI0L6XyLQJ4kOCa+lnYetrMryOBMfREdmEgFyvqoYGeBmVaYYSmg0bRmv6oNmHQf9pWVIFFjORkqdSo8EY4RDLo/o846odAtit6vRDSz9ttpqBFDFrnpBAzALm4gAhStNqj0Fbr5n07KqOg9V+Q/BGxIWcIi4JGw7yTEkVg1PpOyfp4iJG3SbDp/WsW3rGvy/trX4Rp84mh8DwDz2pn+w98tXEvYcM7eZQagvBn604hVzxgd8qcDPqCtZ/XZ3oOUCPocP3xAbZ71WNLLw4ZzH8fe33Of5+T1FQUfdQ1+BREWlQO3R7h+/52jxN0leY7/Weg4/W4B0dqTTP6oMA7hPiptATyJoDeUAUICEq5Gc+PUKjU/uiObYQLw8/y8L/Foh+RKssvHeKgQNGtcZ26afLAingCrrPnYr+9OODB/pfSvmldVTo+9v5z85OjJj13Ffeoj5rfX3fDsOsd5zF+MFHnpWWbEo4Hh1FzithZKeQaSnE9hMnuXREOZ2HeyH0T355IVMXLHIaAFpsv0FMZ0ESMNCadPe0WQBHM0aoyUwQ6FXgtbB/3psxYzZKGJXhe8UYp6FFhE5eaSlv9oU5iYpmn8busO0EecLlwlAgKE4fvjjM4yySJVov6VFDEOxrx60qT6TXGtB2Kjn6EZ7juOmEz1DLJUhZ2A25n4ZK+mA+WXqc+wGe9MBv/TzeFg7+8mtxQ5+VWAu2SRb+qE4r0YtMncA1xKE5rC3eZ5I7QUW1uZ9JMYljo6YscOuZ0saNDxoEHvID7A1EvjsFrJMzGQowb9cPDcsUdi3rt+WI231R5h3cFjTqFitSZBs9StbibPN32xPGXyz8B/yKeIGi/elvGvAqj64MfSBAbGb2djCBTmn76u/5PKsH1aAX9RAGmAOJiDdlec4YdKZiuZylYpKWbtujcqGAFTZ+x2Fv3B4CRAjvSnRNkMX5CNFo2DanAuY7DEP+/tktw+07kpA7PqxuTH23HLaCpvGCJmf0QnFHoALgrVcRRE5U2NAdOOrQD6Yuy8WLsQuz8dZreJkbFLO4EAiHDc/F19Jw4vkd0Izmnv3GpE5o4/+iWSZbpAAdzo8RPGRuCF4+jS8Tad4+hKVBsturHKg08sWyFT2rW7j6g53r9OHa2WhYpWd7dTZRQj4FqYsJeZBm9ThjIQLnPnGaqktTKRUBbV2n5u4t41tki/YVvQoG2GOjldRLpcTjpi+1tDyZhIbBHvNGt0lQnm2MwRrZAl6xdkEuFbC8Nk2lVoVgFhnIdG5xOvwgW00nPUZJVwZS+1PQ6c1fr5kEYwy7+IIWLINEjJXWR4y6qpMxM8M5YAKB1VXAReO4dmj3lF8vrtB5vDCIwMIZFE4rFRvmYvg1I+tEwqDGAqEUKRb7GdWTNsJ4t1uvz31Xe6TyYx+mWMRu0siIU/h7MNLZb/lQ2901Brk2s1EBDGWIvMInQZmApjtAHxPWFlLG17Q7yLKANTGufbURXrhFeybh7w9aSylGRMRdSKKuDawWZmsFsAg0m/4J/Fc0r0JUjj453drHR95oSWALaUu12OzPn6gDxAjEYaYV37Dl5rEI+4eAVFcPasyPpY4IGY+zgXvOFcPeYFKVsB75m0EpSGoxGsvN8/2x7m6EbkunhXVyhJeYkMDCSH2U3KzT67IiRYHFdIkHaVRQTQJ9I8MsEcEXw7cT5KsE0+8kHNYqfXws7n+8gvsxWnEoKj9DsbUzxSJyU5YXeU2lTN3zo5fMU6Y7TL2t0y3DDbOoN+xq+Hx4WP8yIGQ6sDWHWYdnofrzAJ8o8BURpg9MhVqVi6sQu1Lcu091FEVZUpwXs1laMIeSfylLz/1AokOerFBp8vxiUQ/5pSO+2ZZHs/pnyxNZNi2xqcqkHgxXPqm57f3RoI8EbsZYB8CJKPSL87YFJclHPQeUkVwHxV0y2VwYfbasOHsCLo/2wpqWQHKT8GeedBY5jQst+x5BNXihSp3IlvBk99dCiFaT66uf0mCd5EI1tYyCzV7PvNtpfVC9/UARt2J6rP0iDneoROTfsLLv8EL2CWLKn9t0EO0JSMKNDxoEH+ID7Azu27KY+HB5UVLWCR74RnD4iOYdOd1RJrH2zG9kqx844JfPJOmnpz4FszgN06MtGFzrW/tf8mvso/YLC6BQdpXpxc7okbs+GnP9ynDxstpREp3oqbOflQl/QX0M222rcrSc0fWuYSPy56Z/0eXjXf85HiYryq3ap6xkksyd04yeVkwPulhYteJcz+eUnqG/z3fos4kGWYvR7HaKaGilfmZgyXRnPNk0tcE/GxI4aZGjjFHq1wEWlHu8eWeB0CQbpeuztuh0kT3Z/liO8itebRvOv9ypHksppPsO0zW3d/s8LSuG5566GKQUirT66cCSA0DuNDFfQz2B0Yqy01kL3G/Re/Y4hTv+A1yoy45IO3OX3Piay6vMiRYR3zqWmEkoEtavLZeHIbI3HO0Hu02ybul0TmWqANhhXtulJIJjoL9XtO3zA95LGEWQVpxbVAqMWnEIpnDbfcoRserrDrXsuHqa9cqEppzSqvXy8qVvA7Jrtae/ZjougRgMOtgHrVbrfhdrZav0fyl+xYO76qN8FdaLuFqXI03UwAHRtvnKwHtVhyEGT/+FhFulY8svQnKo18/5DBKfCAUiWvoLawlJkaoXAERDJttzZFaRQJmcqgfCrYkBoRPpnBoyCjf4V603QdPYMvS+bp6+2Ew2pe/WEmA4Owae4lz16TKe3LhKjsO/UKXgk5Hp99ePUPvGIjiY18OB7pPJzu5AKgVxt1iG0w6mafWM/swNUa8nzvR0gEusAVtm/cZxmXbb5dO2dROsa0dL0y/bLSfPti2+3kBgh37yeYvhcPPkWydhnE/J3c4p1y5GxU2K/u0eAeyK6wNgeT+Te/4r2emAi1yhLW6wlvY48Y2VrTN8RF/DKYJfq2ZVksyTrQL7DhydYgnqxFHXVbD+WJBpbe1cZIQwc3j7z2p8xDzMZAfo8SNbS4QJxuSoJvDOh0v7+5tRnTHakOTE1PrQeR+Oe9naTUMDZyHJm3LU3dOc61esiVanoYFlLAqlefL1FoBZf1ENwUsV73tdiNjDIqBKj7B2ieAfALEe8AkSy/+/tRW8VHFQpTy5RRFx2d9ZORO0BsiPwWWdd8LJ/9UBjos5bJSJ5otHJ1KjhUgunIUIS7oZRx2K+3T9sKdgfgtLxQUDgOgBSkM4t7ZnoA/q3b5/3m5H3UErZK0DB9ctjZuuA+WE50eVlEva7L3L8jKaHkF+4bkMLjZET2T286xe8Z7qNry1v+mBmoCzQ7hKtDmPE5QV7N+B7oQ5YeGk4jeS1WaUpxMORkxkdeCMjDqNDxoEINID7Axenl3YgspIcjXZR4+FGhHW5Ea+ure5LnnKixke1pz+Dy+K/tzOVUh0sWHd4JgQnnbtE6eOjqxqvkbMTROumUaRFJWOtUCPgedGIqliwh5w21d1dptXzdEzPZtbN/siCdtXPa5ZmgCOdvQ5qdnZgKubJZvW9AtoqxjqbAMaobSC7530v8HW44glgmE0SyD13rSRWKCUWDE8f7VBKQkdvP8Aozulgnrxt3vD7+kNCEM4Fn9WEvxR/JmWrXrtYM6R/IGErUSW9PTLowA7/f/5jRanHDm/YPrT9JexV73Vnq6AmnQaelJFfHGsInyQYH4V56+zmyLBt+p5heAdrkwaGcQu27y2iGo4Ar/tbRtcMyqYlQJtZD5M98xvySHxDdDq6L6TUyyeJ5bhDzlMCS6dtCj2IJyOjy9V8Q8QHHy7p1k3IPG9Q57gIpVomNvqz47tdsprRBXUkMKvShWlVJ5LUrvPmMPdawAnt4moEiUi5Rk7IaYcjWaHProgecMbw3OOsxiimhwkUx23dVYS7PUJtheCb9KZknnHoO8dmPTVG2gZDHcl6SvHwIpUUT5StrI5nGQX0nHcu1IPjcLSPsbmTmHlcV+Rlqv49jRlWzJ/wsz6CBuqrpW9s+3T2VES1T3s2940iB21/TMZT4WeGqWb1AGGBiirCJQ2nn7USWn8Ax5c/H9fz3iwM0JA3TegMoN3TdeJtVUTybra9VMPTcYFEAQrXGkSeFqQNDEWYi8H3v2AJuW7Lo9R4oeEQlY9Fpn028Azfbi3VEihyiAol14VEQpcQT55dDxgrXJdxUtf6B9mf24gvWrpJ0i5iV9IZoGLo5VtAelymAf6zf/+Zidb+FZo7eppRdCR8GmeoEZYS1ElJ+73t9FAq3XVpGH5cyM+E6+22wowl/2HxXcVXg3T9EPXzgjXFE66WDuDZ3WpmjijoLicS03ws0vpmR9EU+UClMnOtmJEAQCMA4UKOEAtpbytlRkVU/ByIwIPhT8pgUHdCyM3jnIh62K6riY9EaVUEq4fY8m3724PTTo2Eu6Lt962u+l6YadlGl37GitsVzBYN6Cqgnm9qNhwi/D+Sh5DmYxDve8cTCUnqClnC9HfZ20zha6GFzSLURAeltsZ2MX0vR19jCVuzg7kEVRevZ2QfT7ivIZJhg7sovE5DhtSzbCwwwm5UQAz9/6180RcvfxEK+/8uHoQxabruDkwUJ9+fCcvxGVievX7E9Hptgxn0twkhDtYP7M+urMkH/83KCYaiNvF/Ad64x9XHoz3saec0JKNDxoEIb4D7A0DTdX7exc1ESPRCF1KZB2nOfiJaZXl2P2Wlpff5ZsbZ73cLW6Yhyd2Zrx7+RbLSDgtnCl/vAsc1aeaYZoEbjxOJ12DGLKOQrTskf/yXraZzSwX8sR9Pllm5JS3UWTpcyfpD5cKI+HcQvzZcMx1hKhonQnqATcjqoa+Oqut+g1pjmZGGNKF7lX9txUnvK19IOM23J/o/36uzOz/zGUBj6ci2NRSbios4Mj+tOvVMO1MqD+wDoSYKWL+aQ6rkUdsgjnV1inAxC39FsU6ojUWxQbauQOcL5eNkDH1fx2cYFwfSWSyWk0AesLgqp47yBIsvMBeM4UiNnts4P8YMLaxXZAX3UIVv06kHOIH06e77MV58eo7ed53vzTFuKW7yEq80+jRLSrSVRs73Jl0kvu2MsOqqWcn+P0vtNZDZEXECSLdqPZzlaMMdg3Sgi6aiHtqd4AXNzG+hS9QZ2D5oClHZqhBwQBe7SXxazxxCX1STdh8JQqJ+AO9R2ELP4G7NUadACPDvwCi6DOuRtTszsD4S4KK3v8FpiQsrMwvcmXVQ9jRUWosV6IU4jSng5Sv9QndO16zWTG7yy8bFa4Er9R8CCeswgRkZx7VK9O568eqFXcN6ZrxA/vKHnoH0Jt8ngyI9ewMLRIiNltMFFZnpOfOvEggs+ihuuZHVC21EkMsya/Mif0M3kEBG2zj5x2fMDPTWlBNaYjOx7G7+BF74QKvE/wV0RpBd989VIMqqinjRh3VSWbxG0OMBZH2nnbEIxBkzKdjAx2DNNMqu+h9VKF6k30X/8iF25+YLO6iyemBdRyxf5NK5uLnBbFxMa3khuXdcKkpZIErJUiKlf9RmueK93ccY27uLINO6R8AK9jNF041LdvK4QB7LcJ1CJ45JDujS31S8qJ9jXukXDSh/MSu8wTEsd9PEYKEQ0ZugB2ThExydZFsUW2uomkEoDuz27GS4bngfM9+Ar4yBHyh3ZroJOo+HUIJ6pZt2hohkf8b0Svw4NWD96oFOjl5ManNVyffcu2h9GOFtTTYBE11PVJfXoXFmDDJaZS59x88ZF8vvD/1SHJnT3XtjLUjB5XJOKICQqdKS6wn5EFUQQRtm3F9pOF6EgmkUBkMOBcyYhp+TVK7SCa4dsdx3Nyc2N0dNbD4kt6wwxAKj9AkeYYpU3RDF0GFxjgsLCdq4UaYJ8oSRPHaLXKG5NZEkmFL9Qs0fK0F7iI9lqfsMExTZH/k2MO67TMjYclftYPfJegJFIIvg/h2gvap50WryDzKWNx/DS9NaFKNDxoEIrID7AyHTp/yLylOPDXdNoA4Z85n5Va+iahREqRNUloaOurMn1vLFOgxF5pWU2x6Qcuu08RVLEGS/zm2/RyDfMktMAAM/qD2H9sxtHqEy6Pkx/ZpDAFr//Qz35+SDDyfnQ0gnX5Ty+3JoXO9fPYYXuRCnRtHnETFKRPQ+lRu3Y6v+jtTmxkdDFAUHKf156d27Ak2X3u0Ocn7OjxXnQjXk/iN5lpmh9/ahiXG15pnT7G5CfLRTZZQn7hYRvGO05Ci7mBAwBv7DvCEGOiXZ8o39rxxcHvF/iqoaKybTObhtjcEzORZuraWPwkGEVkrS/LdxF8n/gmy3zoDjxLgY1F6T/OqLpyYJKEDfsX+cx+TUZ7T82NpyrqPTAN0p6Xw7YANhrCtm0e+m2y4r3lo10brEwOr+bDJ7RrcSKeCebYFxw1tHiK5PQQWgWK15csR6buQ6SPV5idLxJdvGyChf0G5XUXhVmBDBAttnTbl1jfO+I1zjyMrWdW5myEOuYNz574vNxdbNvz8LQqLqCq45t4t4XO8QptJ1KxOUXYgk/dk7MoDDtKut8s4fo3wmkLng4fMUulYtArmebU/1v8xSXPMgDYgvpoC+EYsnGuxjLNea8HT3xNhPxz8+JMig8ahDbDSRw7kkHZIayi6q76OuAU8TjQXn4AwbifRKDDvbwfrKqT/Y6gHNJBxwgHkMYXpRzdc+RtOhvrxQlmjrh43tq6R+jV5chZ9B21uFvaohlOkvkvmva37GF/gW1jJ26WGS7XLHcmnw90BjSRos+dS2ZuMpymOmPwhlAIPcUdOScv3jYe99W6qc5X/1dslrF1HUrSvVAqhA2UYousB5tCEdG5A9f+U5uQ1AAWw67eprzuqXAXaPjOu/xkaq8oNqw6xSy8D+yBNUlU/kX5+QXel8oawZEPWygo/S1HFf6hk741uh4uZyI2uLjqUNlnijULH9jg638GDDAwfv15IG46o4T7nqmGFfCQ6WFNZTqetark/FdQ3B4RYq9L8FFOb+P5p0ciZTclo5og2NiOME0VU+pJ/YtpKf2zU93h6fRMs9rd+JP2j3DVv4umS8pQwZFlvJKWy3/YmKCxJAt/bAGbeWoLFiRVRhXHQ3DYHXxND22hM4JI1QUAhcbuKSJu+FBx7QggdNXNJ3bYWoLsAJLzXPMYouXOstuh403bbKMILQ9WKfWyHQw3b3BMq1csdsi0Bs+FjC+i1Fo184nh0mZRVz1qqfR05aVjavJsD5kQMAgyxKqQRJ3zwaVZWCOylwS01GJrMM6yugoqNDxoEI6ID7A0CpJNJTz6Mt7POP3dt+Hz2LkD5AjdlT6fEDEsmsr5IbJkXZBaAknsy9em9T3rgWzLcqD13QD9vKNpY9aIaxz9eaL2WUkSUklQi6SelVPZ0eClsQdAWKwtB4LRHGjIkwzrGgOY/ZT+LNvxgNv3q1Xjl9DwYhCvJHI94nVs1F5GSYt5wm3y4pEGRRzC836sFfUAKFE4wf1qDuyxIO0KaEuE22BGIdn18Q+TQr7PN3dkzFWvovJDkHLuVTB4vW4oFPKmUKSuNfbb+Z9zbLsodoC7d/wLcZQvzrhoWodanOuRci6OU4eQweQvMpZ+VjpQE3Hyby7A1dJ9SLIxE8LeEQg1cPwylvOgvZ7Ajj+6L83SM/I5ZmmVXMf27rovvDerJ39oKJXaOio2U2wNlGxJv5M7J3yZNr6cpcLqB+GWIVz2YEUDUbtsMzVZDamTIyaRBHpypQf/Fy0wi4KEr02/RvC9KNNmClLiZNNFbkjYNJmXU9zLlvDhtqUzzAQF/vrzL/56nMbVxq4UuqQRbgTkqAgo1O0v2CHH2EVJENG1OP7hFd5b6J/Iq4tkN3cyFhs/dKXIfIJFdzXCk+3aOMZ5rMI6i4eTm2RA0/qEMs4crNUoDmq1uVR7hopfir4cVYEOKVbEhqiSHs/91xTLME68HivJrfkox6FYKXpc0F6w17ZC/no0s5aRIXdr4CXWKVvOZeOlsqBn4hdv20n5f99qpOIdRKjunplMpjrnfXFm75aY/DQgxsqv8IZPCG/2QBXyHlB4Jc3ta1hnZzOK2XuxdU2IMR8HIF9ET2JY4RtFfqt734bJeHaKl/3TfpEV5lY/FSbdeSAK/EPLSjUbYAFrn5+PUY6QT/rkZ7xtjryO0h2KWj09cfWUHO2PXFjH2a1c8w2RPDvl5HsB6++QhRoQlCQfLTCjDu407+m1xW7EPNona4Cp71zoohyFt1SPSaWTNXfxdfDx+7lqE6gxR0iEbyAWErgCm0Cqi8n0FJFLoh7RfsjJsHazLxEMHRO+nt5qCCNEiFJUjsj4U4YgQyu4sAVikm0WXtEmw79hiSgwrHZH55NIQXXybzAIOaQx3jzGz6nQ31JLj+mTYoTnPNnGenHD+kICn/nCZWaKZeLDaRrT9BoRh+8XojB8V6iZdU9GF6Cw8ZaWJVREL7PQgfyuKgXauAQGWUrhK9o6zZYHPI5CSxFEsJIhj9KxrrokU6ed0ZmI9nPPBrPbRykgBdYlTJj22/KxQlaQCxO19NeCE/mwgL5V2668cZWiLS5EImV1tFYaNDxoEJJID7Axd7RsscsQkRGDrIVBA7qxRbgyRhzrOl7u9u6iV8mt/pxPuUgGsgE0PdyzHekYYg3EmR4sJgfujS54drWBswzFOHjYrgSb5KcLgLhC5CclepiOgBT3y5Ar+LcjQ7V0dmy13futdX6R6HZK1PxYnSyHX5s9q6nFFrA8D9VUPyOifqgiseezze3XSd97/LXmn4NYSK7d3RI7luzKTmtvln5AHdz/gMZ5lXBqI5C3fRUi1d3uMy+yKZPLVoXXBrpJ1QGbHFgeGd1h5Xtj8jjRUhu4acdtEXyRq3Q+6NktHiev3fmfJqIyShLmXTv4dz2mS8258x2V0mO3FX6VA3HIXiHPhI5jAdPuGI+uCSRyrW4BPvA0rSeqsXnVaVkgy1wyV+ismGDFt8kxBOxFkqGty5TWTQi2N41LKlwVDe1ly6siiMPBEhHQnEJSEcDzGs6khfGi/ovXQWdDWGNmpy4L0Fjn3IBTfHBRZAlgCTlBESY5SDcbR/CnunzAd914ub2oUJsW2eo44KrfbCA6j811Rl+Q+u+c55E27QpZMa1wWzaFhIyBQv0FifSMhg9LZD80mTZIwW6lQl4xAgryElu1e/xaY2r8fAk/0/QLxbR6ynEMGEVpWtcjBnwA2ukdCuMkGAiiTwwcpZMgHm9BANJiLvKuOrwpLiYu25YiEijZYIX1KbvLDbLSIUI77wXjTJRx1HzET4jfrs4s6hpSajxZEtCUleKyhGqeDTGQNwG45aCN5yj4Ub0rGJbclYtvltqXZj0ZWqyMYD+4HKCQZf7pQSxbDkfuy+TE/vgMO/vEp765wKcNxWn69rY0ahiR7B7WdRsLVOg/HIMGsyXV5S8ZDeuN89f6I6fd+pTfJEW6cfN9QTpHMUYm84CXlEHV8ALdmslVYWk+akIGVM3lv1Y6vvNbXSBP4Dze8RgPf6YmQC2+7Zjh5uRBqqq5NZ2Bly7xdd7Uq927Kag8mC+3Lr+FsUjpyoUKZZ3opDPh+tDPnkonOLuNIqaS3p//FJc23qOP2tJNr7Vm/bs5JoAxqDVwuzelJCqa1gJnsr4+6iaBlOevB0HzBSfT510egybgPLQnZlamP5PAVfCKfedpaQoJJy8rU+rgP9pnoeVIMvj0rNjJqIECwQSwHaUuUqA5Zh91bPR2W9Kibv4B2wVA6V3NXk57iiE8hn/PpxGXkBpXTj3EqEkNXADKb7zAC7MSTkH72aJm0dhuZvM7kJr/lAeTV1UEwdHhB6D+Gy9sYLi9otaXwchFRbBWW4SyxxqLfI3EX/0qNDxoEJX4D7A0EK7kfCwhgy0Op+hxH5DlCptHgQfZ2lJt/2aBQ8uS0jFOAvwt8Ah3ynQm2ed7pyW9S7zhXj4g2jEWcGXIy8SmksCHoGadPxoMulxDQBUc0T5fsjbgqmBReWqrA2fickal/uTa91+HLgZ/fXzIkoyUp3A4Oe+HpGA+muilE4tQl/Z9/aj4fiiDnngcwljFkpAFVte/AqpPfFBrRpBiP/rJ90BP45WvSC4fZM/quAm9Zt2ACYxf/vJ5ioOCIST0dHaE9G8klvn143qMknprdqgCTXwcEO8aztKz1rJ1xxoJ1W55nwnc5hVcsnv3mDCTTKcKa3YoKT6zgsuohvtJA40KZhAZxuGkxzbDY+lGnqAm8Jb9/i0txUnW2EQEz1LCAQJPbRHnGLDXa4ymbejl1IZbPnIF3W/5oOgpUDIJq0gdhyUOXDqZd6iN8cxOQG6OPWeBwwdH/d2gNkMiW78xtAUe56LR4jDi8Q3QFJKNiy+dGN2qUvwd6NiqZ1jKMuBO2Qn1JqLkWUpBMjyLnD+CxgTyHcsREWbppoTbJdzw0iSsjDzpva5l0f1F+jcVhbGiVTSBhEfvZCdS3xOJR5bBmzJ1B+oqZgzKHT3E3CNYHckAImSjWZkSbSdVxqFo7RkKY6UgRA0ONjqQ40Y+WPhBcTebW7dRWyz4+N3/d1QJvEAwzar+W2bMeKnjxtqrI4nJYW7Zxe+mAcOT+c19iR5a+xV1X4vZnE49kj0fwVvlj+BKjkKaA2kPORw4JsYrb4mv7cgMWpM7lkJAkJl5o5ZAj4kCrAjQTDXJV1yQrXwWbokvREisEL6NBbsbKPx0eWxmONNYC28enqLHP9DK3NAW2cxUexBNV9irTV/HncuRkKdRbgcSWmtxtk1SPF8zJM7e04Vy+AFKffc7/RC6AAPN50iq/51O+U7qOHG1pCg1kAIvBjbYMjd1bmT1EQf5Rftg0Ngs3QiWzZItTfZq+fDbKbAsAZoc0bneyuA44e0rkZdmL8NtyhFHLamqy4j/PcLo+/dTdLgFm1uA7+lNAMDw5MY2KCKqAdQ/wH9yQ1ziNX4Xly361UzUhJLNi4RZCn1Qhin/YJIWd+ofFqhPpqvpjRJeSg/bTDWDdboZDyq+YCux31fzzBsYEoiMEj2tD81L73bo1rw/KAwT7rEHNcB80cxf1KpYHSGnyoH5oqnT9fOSSUrur6JqJza4LNvMvn7SJMC2AJxZm9iKu3tLqsf6MrFs5i4qpnxiit//qZnfDFc6qbaTELdwWMA7rtEYw02+5jD6NEPIEJnID7g/0r/xJ9LjMrj0Rwu2mrcrGikpnBkQRZS7ztBWSuRlrNERfcshMxUxm7CyVI/dz1uZBpjlcZCZvYbxgkjIxVFjoC/7C7xxETSESCjNAL3FPWl+oT47HouJ+Ni+UkeH2JLWFFU9gQiyi8wT/MkWlw+/030Je6Gim2drwTUwz7noa1AgCjOX6u/azeTDswbYSVN25QuTecnni5TTsq/VMA7pKT/JS/apiZnG+7LwYaTzh87YJWs0pw+W5ocySqL2svEP0DC6G9P1ilqu/XossOl2h/A3jmUhWMrQpiXZ/0oZDLzzhRfZJZ6JB5ca7INduD3K8tLoaa50yCSTBzEX9NQiNw2tOUpdn6IyNob9VNMrQuPl8TFoxDGvAuXIAaqScVL8TBp1x9rIPYTVQGq3yFtCIC2hsehsqOxsPWqGZq6Cx/m4nsa7V+FwWoKFYeygPtm147BYrof84A8RSqeLJAu5l7xNp0sWlYDeTMA9Ydtxbub4FRoxhModnO+RNR8xxG47WsxEaz9QkDCllO/AnyF5qF85DWHIhjB3B0gZkpYiDk2eSOUVzBQveVG+Qx6Q7R0FjKhS4wiWF5O6iIEpp95s2KenHAezfm1DYBHr1yLQvSKGV0X5P2TRmK3DgqBa6XB8cvP5gK/x3lwwy2t90cgSxp3gFd3MURjtAJescA6kW1Kswc+EU8Exk/oUGwjRjLL/chvXB0u2MizYbcjbLZ2bxg5diVithk1NqjqbTc/In1IKbUE0r7u/BFVgdk2hsYTicQsP9nNoYBjafmm4h621e0uwtKl5OE0VLlaj/pNPWRsYHy2F7Nm5txe/RJ9Gj3znhOU/Sojl5QBbwaWFkr0biTO/syAF/B823vQPStoe6hxznznjRNv0ULo9FDO8xjzMNTgq+QVlbscz1D4tflG4BpxJBjZLFbRSujqHYsBkRh5/CnemGDDe3emxuVSD1MBgpdNHeVw9TKK20wjqmdY+Q1Ds0mvVxBQikl3Rbm2J7OR3upf9aMg6UKJOMNbThYoOG0sFGAH2yXS3pLZLs8aqzxRyM9oGFEZw0rhizG7j2nCChXgBfgJGsygxaBL9uIh42wG+Ba4unHraty6RYW1wTf7l9wSx8EShuAW7VAcqNcxREdpn8W3NklpwFFjkWVisKQKHokdgUbUk5q72u0YnOXGUx1e+0o8GaGAfot6YuvTX5Fgmg+rj9LXZ8ff/bKMKhs/xUvrdlgtMcbKTCEYTH7O1GE73B9uwL72xjqWMPwE38gKR4Bibtj7hY75RYmUsE01YoiX7qyh2bBOfApRGHJBmUAZVxKE7Smz8xwBoXT3rLhvhOOguiXLStAkUVVCGMLGwJSk0Gf0EUnRSURAxGb1RbQ2sntTcITUD1qxGtP87Os1x9lM0GDmbFrlvRPbSs18GhXyjJuAG6dDzo0pAmsyldC+qyjQ7uBCdeA+4P8EP8PM0jAM8k8+oK3ZQ/e29Nln6FHl+cSgp8dX1jdy/StX2b7AVGVww3TlQhi73vBXEWUH2FZcRZkZETe4fixjBIpT18dbYujdmW96QC0zNUUkMapzzWnzoHK9B4RjUcsdcKmnZALanxHJPJbm+EcT4zUs3+xhsqwTW79XlHsz3TFvWzDMyuOsn1iOIseSxiXrLhhHHm80Pm5txP6jIItJSJVv4xIU7/LRg5Km3xOa7ieAIZm4Rau1Qxg/cDxtuW4lpwyT08UxGXk7iHwicijodKHwude6hQi8uZSOcrKawG+SFC0o1l6Mh897nsj7P/ArUlmGRGgMEuY3iwvm6B7PhYPT7JsJEGuNhTa4qpbYGopugC3Wd/09taJaNyL6vKAHN/uWQzfq7J0o0hWBsARkmpb3x+D/fvA9XeTEs1t0kbrmzi45iFIpo2Qd9TaE+TAP2lQbXTmlGQWhpeT5mMCX+oyDlu7CL1LfKdTJQ1GLJ770BS5HvjvFll6OMJFqRsGiqhh782qD8b1KxsrWz3zt1wB1WTGGAKlFgjE0JkUhJSGrueyhJZT9iO9Dxz3E2fmrupDEU2yewnUByNi3VeTwapY8HED6K45QmXmqU9/b5FxMuHlMrLHdJ9XXUmsPANDZDgMTGP6jjplkLdyyK9/nH5yPE67srf9m6CVWOcaGBMGtq/vTFKvtPdHKBd8o+/ZwZrZuNOoADKgC2lNeytj2DN+6EKx1BCOlT0AoCaZ3q2Lqa0PlvsPc5po3xAZqWfzmbE8SeMEckwifHURVjXYyhJiDngJK78PE4ipB+e1k2TuWRKEzOUor0bxEV7mxGb4ZwGbXOFpgffyqic5+aTAkWNYuTu6x0j84YiUB5KMKVdL11Ry3npCltyuPz2gh4m0s3KxY9n6cIg9W9lo50ltrBtvPoqlY5O1dgqSxZS1r8xQzHcUST6+bzkyR8tVaeIAEzLIUdQDM3JR6rTKHu2pggeQP8ZwAZkqgkDjfPzlQXVhv1GeTWTxT5uWu8Y9R+MTxrCk+gpmOCiUfMLXjP9KCYE9dGayumg7NFuvtQDrk8sm+GSo9voL07Y2tMgb8umeKRSW6A09xTBeA1xkDHn9EVAmSUf3oXOrs6HAsjG6km99x+J4QOoDqEj/krl+7Iy09TNq907/jiQwlHTLOb+Hx9cg+q5s1xZuh+/t4b1jtkvMcNmJDMLo5RLKaLAs8nfAH/JKeiiNHePlynAMxwyD0wVyvsuB8OSslGmfP8TN5TV9NFAho0PsgQoTgPuD/w//GxfEr/npUXpsL7i34Ghbm5NAuP6+GaA9WeAzfefkIi5OubDaPlK1JsVvMFteRwm2BNM0p0Jjq6e+TmedQ81Ks8qJfpEEBUDYQGzOuaqywWTqp30C6LBhx9WIeSI/++Wq2IZVumMg5UfoOVPndj7SCrfD3WJ+fphXei6mVjdlOn6gGbrrbfd2H1yiAfeyNebRHdVEjjVfdZChh4ehLK5AZ02BkYAxnrfeDmZy92/kTYTtdj/6mx0TyYSKavScDdFo/M31LOAExscDuSpRV4KL1d4rPptUvttghCmDt1UKxZiQriQamzVF8falBhc9usexCRDIr9dveMwbix78mZ+/wcG3iFiFJGSG1wZXvu/77jt6ZUurC+xkKcp4kzdroBfo0GbtZLtYc/dmaF8FYBLnfBcGDG/ozRpDtDgGa3pGW52O/MnSX5c6UAKIvfM5lve/ztU/Gl86fuhqhW287nw7bGIJyh+98nw61vBFemI31aNQAJVGAC0o99DHgyzYVB2Cg3eymHZx+iMDLh2/0UoSqvwnPwsOUB4MWKIXwfE6vFLAjFpLKcLbo2TWiBvcMRRnhw83IqTvE8Qauw+fueF/TzsYHSQBMNFsn/x9447M091Fy8NpSIokzJXbSDlpp7EC0MaLmFvPjayEHi8wI4raDWgAx3nzcNh0BYKg+8fFmH/kK9Y3RL8KkF/hN36MYc9ZADkH/4wHSWni4nOPWFspn3lxwtTQ1GPE86THpjuASmsp9ZH/mpkGI9eCT2h3n5KavrWWA2Miu3j1J1omJNoRra6wEmM0Y3tAHr9ECSpWm/auf6uFuC9zqlnwVI1NbqXDlJ9qONXZdp4n7UYy+pb3iV1oV13/W8/AxhyTe5D7ajlwcOE3Cv3KTI66VevMdY4TQ8odN2JDUyAJOaN+sjFhjVwsAOURyZpVfPLfvHt7O0qJYP2V6nNjuqXtj44g8f1PZe8PCZIasFOjj+2nNxiZewARouEWBsHZu7mQp+GfFJzbw5G++mMzMTumFz0MqQM5HyO5uR3TBjHGBKCbnMEv7J/5zGtkTq8h7gEQealqJyCweYHgaPp38w5L923gQ8AC8netSyDC4+V6i8ffvYy7IPjqOdK+VHaaF16h+iy7m/5VRtfax7lcLvxvLb3S1r82AOE6SMoSLc5Rwp85BxcUvxdrsyQr8hLFtBn94/OBel1Y5SSM3XjVdtsnEP1+O6VyTUkZDPhJsalycgc2Ff8xI1FnPLSRc+3HOOUicFWhpTdTkREZBwsbIA5XUnblQOMkqsg+VA0vwocgczGAWjMbleIqT8AtO1Rc3e6A5q0Fee7Im2ejQ76BClCA+4P/D/wQAJ97I68tUVejPcSCfNc6JWZvLyun8jRY4Yh//lmAHqnQdNBRdHqXCNGbywSiozJ2EQio2T7E75MYNCIB8uFKYtf1TozqXJ2CNJEZJqlTJZ7R/TUc5RZxB2SmDuhpNhFFAl7vfIqmaykeVN5uPWgUBN/rl5J5t8FutujzIBT8wiT8p4GY54SauBJ4csqCnMp002fwBULduckI/1M+pRWpAd4PbppFeZFi4bClHreVjyq/FdP8QhpP7PVx2qrElQT0PnQKwr/PIB4TYTY8Z3hnojH9UeQKX497d91BuvNxCSmyTSoxoO6A7KR3NTo1rPQGKReeXL4AGzQy+EqndLraqDjk76RykCbStWM0zYbhPtxekQB7c7Ly5LgPMQZ3CtMZvMp60rY+iJwuI+FBMSK4UjbAz8fgC45rZ3e5ALw3p198HLMumlx2CNAnQWlVjgMLAzTyDWc6hALAjzW3RoYDdj7JP2NcbTtNXXIwh2yBc692pL81BeRnl8enutjgWgzLbvHoxVPRHiy91STp/erOxwsFoYwmvsrYnwWaZB3HszGABPExA6bT2UT1rQ8tsuTt03Ae6osYgiUcJLrIffSMG+3CjbNO2guxU0ve5PHDKiGlhyV4Lp0C0tOncOGp6C9ytfXAqBP5n+zZzkEXjzx1QNLJkraJWlIW7c2Jd7oth6a6JcZYvt4aGXt0wmCqW53TS43UNH4PJwYCqigDTA3ymc2zkPumTgaDOrkTq4UnknYErLx2WzL3MxXn+wovbrgAHtM0K8QpFVxq1zq9bS0gMJYliBJKFmHS70XMIg54pgUqxwKQi3MWC2ZoEclur6OrgpTqlgnCKAyzGj6s/mFFyfqhj91/kLEjf/GWGoaKfIl7dTNr0rhGVrn4wY+hsEFUycX95Bi38tGysKgHQgFpjhlMito5IjwbglMPeqNsQicGmcw06tTgVmTcUWme/2GJpf6rTRJ5AZhvtGCuKVZzcHEYVikiClZ1LNxwA8KGs20Drj3QUqCpspd0KKM73hn41QU9gzWnPoa1kmUo6eFdzl+CHtIdb+Fk5zW9TGbyW+foZ01iA8i1aeBw2SP7zPiwJfda2/isRcegblP9RVW0VInhbOyHOj0bawQSffGSU3F/wIgltfFDhn8svIURdQbqBWB/XA/7KBe/jr+iveQD+vc6UdmprS7eWw1CfBIFt6HQE8hV2HVwRKww4IloN57AKxsPUHEGMWTZogEz3CDbsAsurzzBj4LVqu9ocefIEm0Ao0Jfo0PQgQqMgPuD/RD+EkvfT/iiY00bAjczplV60t7tATh3Cnb4SwVf5S+siDIr7iAY80CYKTfZaj//LIC+TJn5k8WfI3mMPPpc4JlKTOjt2br3BDnnSFQ7MRHoZxQGI/DADSQtg+xwNSPQ9fQW9ldJz0tqWEerMDXNFH18efn5Zkf00MKDVYrRVhF1kWyZQ411H/5WjUFAJbtjegOgJrPd7ixHc4oFaPkm0CSZNSZVZ8OVqL0YZrEMF7uNr03Xn7Tgz/DjCITyvm+ZQdPIuK5m84y2do+d+UWmsot2LYeOzbaJfNM4MQSGv3Ud6HN9B6VIRWm0gu/hL9gx2Q3lMpyjlwb5NWgB+twnVInShTiunzDGql90aJwE82L1M6KNgGDbXY8Tj36ydZHTwlBF3PrCkLS8gkFY9ubFhKnAlwfEME36yTfuG9WvV04K2JxjRbReJ3T5mL38C5JcpHnbvL5HzVXVtmwNNHO+HnSdSxbKza961LqUZuMYvbui/3cXgBvsIWgVlzgmqnKNXvoqlXZpUq2hlyq244qx5fK72X0iU6vM97+UZN/dBJoC7gp5+f8Dio99bCH2rNEgsVLozuU+eFKCLlGzeCU0MMR2b76AW2rI0TeDwxlfJowRJui2ANZzO4gAH/Xd+H6+ET2RAoSkPcfGQcMgyBLr9OZAael7wMJvXYsdwXm8wCo4vYIDfkYV0GBJG1iNTy4YxEZEsbf9N2MKv4amGpIFCXqdkcQzKPt0C0pBDsQ7SruxLIF9zb3VfmBhreHPo8XxpaDH++k8zXSI4wZlvszGbDZxgKKJPN2gYKB1D/xojvCs6nJWTMK4ngEAIu8+A3zmqoB5dAfHyxPq+e8CY3ExHwVOZHdnstLYbvRrfLYm2dm7spmc5kwdQT371GSgNPlYQbr0e+cBfZsQBw9aq+EemNjeK4+ziRsCRelD6tVNIkOSdJIwaxeVCb9QRu7jh75lkjqb60P36pC8zj9HroeqhROz42JNSdbM/2MSwidnghWsjHFCxMBobweCcpN0k7541ZO0lCKloUYLzL99Dfd56M8PCKUeuU+2MU2Dwby8MnZzpb/z0zaNCG1VjWJr24fUV73rU2IMIJIIvVt3yykqDWjU9F9LJgPQObnPD1sGl10V8j7pVEKRmpPfgYKxihj1wD0rRckOaLUjOQAaAUT6d4hTCyaUfp++nJajiKmjCtoRwNLQa2Wd51WVm128RNdZ8JFBnRM8qtVKbPjTgbsnVjYlUJNLiEUMSmsOv1TzY5XWZxwwsntpdl7UjU8SRpZnNOHCx0TAjqBFxaND0YEKyID7g/4R/RHchtNfu+BhRbzbfcspmB71yRHPnprXmgcBeN++7egrqdVkTnbAN3hjPLAIb4JyghdwilVz8TJ5A0QcOqwHVs254F4C9IVvk44N6VgcqEoNnXONR1lZn/WWevQBqyvimetPaMz+/qrVxjwcYio/IDtOa/0lswoSn1DkBUzJTcAnNRhSdFnsBOTI97c/dZ4vMwuqQIhR3ZWJ1AYfG48ze7FSZjyWCgDPK45g5X+5hN+Lo/STtzh5S0nCJGNe/g2uGscpREO3s6s0z7t50uJ09wxfS5QczOdid+KsaM304JH4p76Gl/NB4MiV/zrynl4DGXq6XCqFMn71dPHmh7QBfVhRi8w/hUIKAs6N9g1wlDHMhrnyhDMWJTuRb0X7S3/jAtNEkiWt52ii0pBvJnX12QXtH1MOrDkcr0sj4hofHud5GUPE2Zp8h7/952OsqLQiaJ1kDKOwXexJYbDV8wedac3ljdPN16vj6DzslpvgLr5FRNU1uCLiLPb7c25SFN8lkwlYaOuOAyUouvtQ/ylod1XWynqXC/oqLl3T1RFLDQRkEY29TRw5Z7CiLHENHn8ThwhxLYTlFfB7FXF/tCsGhl2TJ6eIwcxKmQRVX4uZhPN5rbdbMkItOYOGUTGRt8ZVvSVDL1smiPdcyRxRGPKNenuh3GgoR2J5YFWySTi8zpwEii54/c9O+WDXLSfzTtVr6bzK7e3zN2Aru8P8VcwbVzhQXuLlH46w2Hn/jooAkXETYZdn2aD1YLjBUo2shAYa7LoQOL7DXDnVgjZVAzVmBNr0vAqK5d3HlgeoTMNxM6ISEAj4owNKd9JaCWv3RTi/5ldMXS7GYwoxPUh2VIV/FSOqygPf2AveYsYD1tOcqSkXwQ8iwvubdAMz8d3k+KgSTRi7uCHhAT6j5SIVPSVpQuBPjW256RLP8kKi1UxPSsEMAblMEvauBULpRxqo5K5Ja8W1H2HN8PtOdbLFrzLBnCvqta7kMGzx/jlMxpP/QfXUNC2JDrOEz1K+EaUJczNDCgcF2Pl3h58Zw3GtCezLz9X7jhIJD0AXksU0o1Pncjsz7v16dFzPzq1dQ+skOVmnTL0u9qhb8NwQATURSw87Cmm6OdGXEMmMHYIbBmLbpbI7CxZDFEYkQsrUPyQcw0FicStLVQrJ84OxFy6lxfo/g8wrkAiiDXhpf8lFKoz22vic7pMy+nRTQgZaKZQaIyNYI5N/KcQZ59Q/NPHkALSzUgkcaUjXYuUny5RzzNWWHpZ4M1KO6t5kufvUO1yKMyQ3bejeA2EATFT6o0PbgQsEgPuD/xH+EtmlaX6PBRT1Vtq8BWhCdm0avIaMEya8G6eqh1yYe2YoNnmFQKN8ShLA+5gPPDyT0umTMiMVyVxLwzw07+JKSTFX0QxNC+BOxDYRZKIzkzWgCSTkSc9u/6+BufEsCzWJk1PVIChNRS3XID5ZK7d+RkxOXxnhhxYyyBsD6RgJE6JFhuaO9UXHxZN72jfWhSUDfBYTlsYOGP6ot69W/2PB8gExc2Dc6yaQLOpoaNZLdBHo+KAQbfGdBgwZ4suTNlm3spGdbxUTyewyowpzlECUZlQKHUHOtWmSSbLjz861FsVra0G4gIS6GACvZqJ3liuFsZoPWntV4Av0IsuN6PKTVgvb5SQHHirKbzw0HsM9gf195sJxkwUGGQSHEa/eXd2KPuRO2JWYRANMBdixmD/pK+rBPP5XAvwV5bWjSwKHfJ8MrMLyMyRU43h+NxP34Mygv15W5IqSivrprp+le+5ObNps8nGhmePiQ12jDLQqQM/fedjrhLKQkq0hiw2zy+aiGuhSxcQ12Y1PEZg3HXOy7/G0yHTG2shaYD0pnhUoc6h5T8ByvlDIDEBVdCfV+dGEph7zHXE1aye4orrBK13iEKVOIM5HVkgfmE8rT9DeEUEv60X7t8yDkLSAXmHrHWvf/7gON6PHEgiKzbhYKjoeSm345HvXhZBh1ptr8OJfzvg1L6w6lagH9mhUVvLnTTXQfaiEl8for5KBdC/f5wW/ZvtrDp1SsqyMRcKuEa9IAAH3edDfJUgPxvu8jsCAzr80pdxY04D5f9DMPiWiIiHF3WGT2x0ijT4lpUKolpPBNQ1Rf5g/tYMvv8HXWM/ficOvQ1bk8tmkIUBxQWRrVBcsQUV52DwGdL8YqdzYSfUaacyIk8ANddAXn9JN51LQzapd6VpkQ4sYzM7uRWdKuG9woDPIre2R01wtFzJ/t+TJafG+3Zf5qrnKvpoKzM0yjPW1vOOVVkvxBjubjrZQYB/1ruG2y2WwBrAhar2HlXwzUvR7G1Dekd37pYTsGDoxe606FwlwFPSplGfYjYUC37VZiHOEFaudZoOHu7nyNjOkABHW/K2Na/OLytEaN67DVz1iWJkkQ15D8HcQhX+D5WewaM0fPHtAc1tEIuixZbGBFtADSktYb6TkYDY5FK1pCWjBSb2LWasw6O2rLNwIjFJ0vAsc7kX5Wa8naxueEa6OpqY7OmkzBgbBgCcxHzPt9UIoe5CDLpvMEnMkYzVTbqX0kC4LuRgvWzeXrJbc0UcdTMvcRlUXdj/5eN9j9t7wL6eT6Zb/1a6y9M2g0WjKd+MRftPZo0PMgQtAgPuD/RL/ENt5cZiYiqJuHw/2tL4kXC8FzmEDuw8PCmK9oO5QowqBIplRI9Ew507JxuktmAEH+Kj3y4Zt2il+R2TcmU7AGG6oEe/WPgJ/JMfPdAQTJSRgEl5ml3a40G6j0gEnLBlr15Lzpte1e38dbHZa+GxjwGn9DgsSjxeS0VgxsZ8UXtZBTzRdTNg1q1ULXrFbLhOzztQuYykZ4vPO7nVzXL+0DU/Eys5KW6hbJ+FlQjXuPAuKYGbPzEmmdaE3dbl2xCQ7VvId1u4eQJO1oV29Genm8TriYaf+B1VciSrjGuRmr2+cZpktNJFXeJWuNNQDAaynEOPxasKw50KisTKCZiHX6MkU5tDqpyDaDAGH131OLbuW4TtHemW3LXyKgeTQTUK9ZwpvPs8Ab8r9IMNsrN7R+CCmNZhI9RDCt344S/LAeXS+JiStAd3ZVfBQlnnghNdRYyG5Vaf1LIH5H5dQzg2XtM/SdQpP999oqm6SINZJjEzVlf8sJovLb9wCtUBillqL6KKbswUTvTBIIuA9yMUP9bK1+wLRqUT5DTA7QoWL33egvaNDsThDwd0YYGjxD+cJX5SCKrtjhjxRelz+eWuJBH9RusMy1+k7wwtCzLdiichpqucKA+Fj1RKFzAkUIF+Oed6K4sAdVSLJmass47Zzw2daMyR/4/C6MOIAKztoBlYcSTz2CXGd8KjVV8HL362sYJcg71ED8RnhwGHrzJQ9+Khv5l7rRdPlIsHXfDWb8WsGXXui031CSlhKVcJIh294UuF9iNkEbxDjaG/pkQN9HJoB3ojRS6tWHMqlqs2TvW4KlIYcpPqV3Cj58YGO5ukJnICXNFJKUBCtSCBtR30s4MEr37Hz2NYVGiZ6MLaySdOJoZ1mDlWyOpKewXDPL3pn9v3ljTrTGmwqVQIlTd0XV0pMRD8OLpEUqyUJkRW5XZraQA7iRz5AL0IUQ9y/YYheXKaJcFiyRt8Mh9ZGzSyGCX9vz04Cu+Ed8abKm5KCKkvn0pB1WUehjyUCRD0D5UUHieG42JqVFGMz7LURJXl3taL88bYdR6+JGJ6/SMlIdn63I9JeM9zKivl5HA38k+VepL0Y1SjCu96gthTGkvWQwIGoDIzDH+dJneZwcuQlwHaPRLWLa+pEYi73Xcy7zsYo/5GpdHiMSYonFtSU5jcnjy9EJ385sDjEbaWWa8PvunubXC7nLCTr7i9D185sChNH7kAPCNxHRG/NygwQ0fbKZY6sITIeBGqMcdyhtE6b95mJBnCTm51W4DGXvN2qFY8GmGvyo0PJgQt8gPuD/BD9EdjUDiDRl0/0RD7/f0l2zQRMBhDKujCpaKOftWIB0szD4X3ygtkC+Qg0ZJ/mUdpgTHb/5VoH3TVWOZ4WwArkaWFU5GCLnapebL+Si6E5PV/vNM9H7y2JjcsP/k2CuYYP7CZMcEln9T6vWC2LtBeKosnX5FT3XKbs8xiZVr3ze9UpKxOR2vhV8rL+ui8QPTH5wUEU9ve1xGFiJug1gO5p/bj5sJwJ2XISfISYPMuLRgZW2gjVUW2JZ0bLRWVVPmjACxUac19ggR4niCfS9/gyjAf1jIAC9SeE4IDMTkHK6+lrc99WER2dzeGis5uCJo3/9LvET3ANYDUviG2x6vqE5fT7bW3qBRyxy8j4NydSPSt9O85KbU3967Qit3CYr0HYHcKl6HUX6Qct/5jx44lGqNsYR6b6e8iLu197m/HWY508ntJR730bs9CHts2ayjdCG+3rpnpHNbQ9avxCRXDy15BMNNBM0B337hKDYopegoxnrBwtFM5mSntRA3G30bLcdiCUdgsogun5+eL2ldiHRkjgQrOW9Yrf5+0LL0S9AL28+I2uFmFvkzr8rr2W7TsbAvoHum6WYalGk5fWqDdGFS23tk8HvvCf1XlUDBcIHnPO0A0GxCzLKIBN18M+AtGbmAsuIvVjVlmdxxBjIpbG8eiWzFUgIK0GppMJh+tEJhQzQerTVjt3Gt8AVzP+IJ9cjGQXy6zSciHkHT6RrxxsjwSpWttUD1CXwr21x3dupaNIBb2MRb5NIzZP/ZuCBHTQyUdQFdH3aUh/oyaYVvHEe7t65oq9Lj4gyUxbFcEcrn6VEr7qiG5mb1VjkMq5nX3Ic+yF2KwThjc6vv5Pa+wz8Hpnpg5uhqQDtVw+jFFBN8DAhPvVH7t+7CkpBOw21cPS/XdrJuSc8EMj8b/TcR8Rz2/XyYy1Ig8VuJi+UjRB5i4a+ZdMLqbZoxCGC0MYCqnl5Qb0xtc4067C9fuk9czlotRN4o/ScmVGH7Xm9d+ha1YFGHn+c/72GppWx7G1OFZ9LSQmtfIzn5Xbw+C0BvTW/75mYlWOEXtnMxZciw4IvX5/T29FjvLN2GGaS+evq4P3tWb7ihEsvWpw5/yJmg8/zs9zNm2M3JL7gHZ++RpjFKlE0afbyHrU4rcCitmIPvw0x+ZHxa3lVRl/NK2B8VTB4qGfln0f+MZ4dBcf5GDiTN6jN3x8GkNWVmB16kCoNGCPqyMkbdvm6A233Jg6Rb+B6GD0j4o7pMWtV+Kr9H7bGATeM7fqyeRygHP9cLluXKuEo0PHgQu4gPuD/xD+EDP35w0DlvzUNtN7yMZtX38y8i0OV6f2R2CWyT+XPTKkAYGlrMpgDR1IzfSDoQw8dq7McZnlvBqkyWB4bj+DsH7vQ+zXKNSzLNSsqmByHQUsqW7VTDJYufGiyR69QAt6BzHdPTpM39ygBypn3AZUCWWpIlcnYCOieMMLHtVAITytHjIPsxqScgypdeZpECdJHHjqhXn0zS8+TErlE1SomctN4x+A/BhIwioMGmrDtX1gfkKG+D5+b1aWSwPqk8pk/DJUgHxa5mM8ybH+a1ne5vyJGaDw/W9v7ybEmeewTROUvqau0NTNLrrWsaUajqA+I0NJm5gVJhvMEgB5xOKhUzPEu0WE2cmrfB0zPl2fkL9TpsHhPGoX+x7PtCkFdCPjZs7BUTS8Kv3x6l+7hvf6KiagZq2,,,,,,,,,,,,,,,,
