success,timeout,failed_images,failed_audio,failed_video,trial_type,trial_index,time_elapsed,internal_node_id,subject,audio_id,rt,device_id,view_history,stimulus,response,estimated_stimulus_onset
TRUE,FALSE,[],[],[],preload,0,50357,0.0-0.0,x9u5afcsn3sq62w,x9u5afcsn3sq62w-2024-04-14-06-48-05,,,,,,
TRUE,,,,,fullscreen,1,52946,0.0-1.0,x9u5afcsn3sq62w,x9u5afcsn3sq62w-2024-04-14-06-48-05,1586,,,,,
,,,,,initialize-microphone,2,68651,0.0-2.0,x9u5afcsn3sq62w,x9u5afcsn3sq62w-2024-04-14-06-48-05,,c5d2ddfcd945737f66b1f010a1e03d6cce84b2f66e0c0ca5b362a9a1bebc82d1,,,,
,,,,,instructions,3,72651,0.0-3.0,x9u5afcsn3sq62w,x9u5afcsn3sq62w-2024-04-14-06-48-05,3999,,"[{""page_index"":0,""viewing_time"":1164},{""page_index"":1,""viewing_time"":2835}]",,,
,,,,,image-button-response,4,77154,0.0-4.0-0.0,x9u5afcsn3sq62w,x9u5afcsn3sq62w-2024-04-14-06-48-05,null,,,images/instructions/movie_1.png,null,
,,,,,image-button-response,5,79864,0.0-4.0-1.0,x9u5afcsn3sq62w,x9u5afcsn3sq62w-2024-04-14-06-48-05,null,,,images/instructions/movie_1.png,null,
,,,,,image-button-response,6,81676,0.0-4.0-2.0,x9u5afcsn3sq62w,x9u5afcsn3sq62w-2024-04-14-06-48-05,null,,,[],null,
,,,,,image-button-response,7,86196,0.0-4.0-0.1,x9u5afcsn3sq62w,x9u5afcsn3sq62w-2024-04-14-06-48-05,null,,,images/instructions/movie_2.png,null,
,,,,,image-button-response,8,87461,0.0-4.0-1.1,x9u5afcsn3sq62w,x9u5afcsn3sq62w-2024-04-14-06-48-05,1263,,,images/instructions/movie_2.png,0,
,,,,,image-button-response,9,89263,0.0-4.0-2.1,x9u5afcsn3sq62w,x9u5afcsn3sq62w-2024-04-14-06-48-05,null,,,[],null,
,,,,,image-button-response,10,93776,0.0-4.0-0.2,x9u5afcsn3sq62w,x9u5afcsn3sq62w-2024-04-14-06-48-05,null,,,images/instructions/movie_3.png,null,
,,,,,image-button-response,11,94618,0.0-4.0-1.2,x9u5afcsn3sq62w,x9u5afcsn3sq62w-2024-04-14-06-48-05,840,,,images/instructions/movie_3.png,0,
,,,,,image-button-response,12,96432,0.0-4.0-2.2,x9u5afcsn3sq62w,x9u5afcsn3sq62w-2024-04-14-06-48-05,null,,,[],null,
,,,,,image-button-response,13,100936,0.0-4.0-0.3,x9u5afcsn3sq62w,x9u5afcsn3sq62w-2024-04-14-06-48-05,null,,,images/instructions/movie_4.png,null,
,,,,,image-button-response,14,102218,0.0-4.0-1.3,x9u5afcsn3sq62w,x9u5afcsn3sq62w-2024-04-14-06-48-05,1279,,,images/instructions/movie_4.png,0,
,,,,,image-button-response,15,104022,0.0-4.0-2.3,x9u5afcsn3sq62w,x9u5afcsn3sq62w-2024-04-14-06-48-05,null,,,[],null,
,,,,,instructions,16,109439,0.0-5.0,x9u5afcsn3sq62w,x9u5afcsn3sq62w-2024-04-14-06-48-05,5416,,"[{""page_index"":0,""viewing_time"":4470},{""page_index"":1,""viewing_time"":945}]",,,
,,,,,html-audio-response,17,125552,0.0-6.0,x9u5afcsn3sq62w,x9u5afcsn3sq62w-2024-04-14-06-48-05,14752,,,"<span style=""color: red; font-size: 24px""> NOW RECORDING</span>
        <p>Please say out loud the list of the actions you saw. The actions can be said in any order.</p>",GkXfo59ChoEBQveBAULygQRC84EIQoKEd2VibUKHgQRChYECGFOAZwH/////////FUmpZpkq17GDD0JATYCGQ2hyb21lV0GGQ2hyb21lFlSua7+uvdeBAXPFh35wxEZg3vODgQKGhkFfT1BVU2Oik09wdXNIZWFkAQEAAIC7AAAAAADhjbWERzuAAJ+BAWJkgSAfQ7Z1Af/////////ngQCjRCWBAACA+4P9Nf4KdwAC2btBKY6d1f60BfJM/72cK8VcdMfrH2h0XO41+knKhBBMOpuxMcYi8z3qTVvIVFqyEW0pcZcLrGP8AlpthcRZ9hTmMFJCFUyN7wS7EYs5Sn4bxS/BEeAbK0J9R3B1ZO1bpynu7QyItaJHA6YXqKUIUTHporLdVBuMQdaOaGUSy8KviuQvS3yurq9/aTodkjCg6CRXk69GjfmfUUxY/i5Aas0aqES+mqThmdB8e0VJc8KklS4zlVoiVNbr/Iyq2WNe15UaUD919eU8crsElYavz0qD9ZIgAAAAAAAAAREzzRbF7Oy1JkAfnKA4yPVyjHEa6h4GVc7kxEZgm/8HpUEaDxZA00zXKMIxV4IRhgsDfcCEv8OUub/Mb7hIHM4zP74P3UX98C0/I78ntyyEprLdBwicG5AdeGja2SJrp3cmRfsFOfbpQdFwZRcb7K20yVNjtRHQ+JqE4dWadXYx0PO7M5OrFWDj5Ztgj2SVnixwdaSul2tssEqsHfonplGPyKnj73+E43eN6b2HJDg2AizL+Tu8tgbtOCvqhlgxJlTjVLLL3FhvhRLrPzNZxELKPxcWhWocUg3bzGKdK7M0hqmtaH+lRQzGsSjsEo549QvFREVCdOtPhYreAZDlFC3wbiMN3ipXbsoQEVBfArqf5juSeMNkZZAqTVmo4VYSkqy56JejvQnHPj5yR04iYiox3hftdQ9p9hyhvjvrrdxgjC03uLdedSHVu11DoDOaY+w2zGiXYPaizAgRotRRlUifexthNx/GkWu7KREFJYdXlsykTa7TcQkW1XDkyu80wjDfl6SnB2fyL2bcW4f0HNWRc384aIO2FVTb4R3NDmAOuSru3Pt+KrV7ea60LVXgctJLTd/7eqkqy3AB8BVNoMhpAvJEQfzkd6yJ3GfDeDEqWEjnx/JVJl1im+k2MC4FrKk+Emn8c5+RqM1PH0aYJP/G1p54yhIARBRagkbJA1PGmSf5nGabn9RYrRy5ASy8N414y+Pij3m9UXDge/cbnxuBLgYRzv3b8QSM1MLewSyq8Z/YZNRWjfaUmxPo+kKWqRLBEFVMu7lBhdUvu+PgHOZbuYskzQSw/R9ognEROi3pW6tE4kR1JFe0R83qTHdnDwm55MbIZsxCclSSFtLn46rHeMvNUfpiClcdphwLdu7UKXknyB10+9GXcf0+ptpRJijQ+ziYQNdl2P8v18dJk9xUmxl3UvYtRytRjIfFl1sdvSl8ch/9Nlys36BiuDDIuCm5rxtdF2xM4mW5U/NznUfq2z+ExGklz8lUhTb18EAovy7LPUpk/q3I7+1O3Pvf2ndLUhVrJ4g2gjUP+3/IkH4gIAS3Y77OzYNOFw2j5200PWgT+xxTwUMZizb61aqKEvrMXXG4jQ9n0zUT9qNDfIEAPID7g/0K/gpSQBPklLYIo0RVrsUX+qjgll20iSphrah3YFZ7BrCCIbTAUek43iN4v5INdUGP7OhTQFWnOOYKFSur48WZDJeXYAI3+sgCA4tZ1EJHNraB1G1QghHDIvaMBELsPGTOSqTQz4pO0JASUSxq3RC3omBrg7dby90tcR8G/Dx5z6Wyy7B/VhooKxGrrvMunwuE6LjXpFkFMG8NWGOoYUQt/ETxZKFKJRVgakjVqvEOR3C0YGCEhjeoaJWLse4nvcVACoAtqcLJiuYAxxPQ/wynX1G4ma1HwrrG0g8sWxzPF966MG18YVRg1gcnLScD4tl/cTTianrdvyPbhZILFZYer9opaLwsW6HTWhq/QUciC2EC9tQD7yZMwh0VbkgGFc0khAB4BA74gE/nfAZi1fB/HBv2m6o13exPlNRJICINdsp00BcT3da02HDNmrLKrvGjKZD99YqNgZ//8fK/oQR/Z5lt+CrsaZoS/4aBza+1hQScV4f6KkL/Kaa9CsdV9JPRsKDViveY88GGldukJwEC8BNRU734dljmtO29BYK/GdXOCasR6QOwH9M+fy9FNAeEtK5PZ/GUReW3ZgHjPGK/i0EUicywJHObvWxG0e+hbHcJldSc73ZjXufyJukdCQp/A/WA8jvSlPi+wZ8hBKj8BbsPblKk3xG7Xxb5CJ68QMcsqA7T0wWymYdn2QfW48PSrrZA04wC5FqcEAw9VELhta/xnptbAoHp4RtlkLVVNtcw7aSNyJ9k+sjkT7g5fuIpRs88MURKzIjCf4GTAFAZx/hAVfGcGaxrfqQGKfjtGPBKAyqyuIUBOvUkz4bZUiA4VtBFZq/qWsC+MCJGnx0JdxI3LHUyQV8AGs7E5Q7mSyf2WEVpUKesgHfHqpYJ03sToZGDrZq9QQ6b6ph5jf0CAzl810JgsFIsmJhIYQnIGAVDX56VwH74Ua8XirnYS16aIjoGpK2mw0ov7NB/uDUuuAJIRGDykMacjWTNBXz61qqy2zMsPr6ksf2CI7MAAIW1P4nouKQKHcdpZbneQxUf6k4RrZ1N5Zk1TmbasDRlsBO2FuCWlWEFZvuL6ggUdICE+WzFdLiRCYUgVxmr5WvLvtYheVvyOcYxYBWPuRTiCvuRafjtKEGiao33BjdNgz7NPcP9cLF2DNblz91vAg2v4hvrGx2jQ72BAHiA+4P/DfwRPyMNGCfWssDvJeZ1+pnJ++iaFnsvjcSkOGRE3w8Ai4RGCdiAmvsy8q7vSAd+MFiRQK2nO6m5j9z1H/UbOUqDsXVqfOGzVRSa4cesdF6LwtvKDOoIOuMiDaw/+C6pHCz97DrMpgZKiG/nI9TEGOE/AR36I1pzkMyq+d3RsZQNlWEl3WqefkXIU57V/e8kHlD+P+JIPWVhRzaiwWMViQrWVVKs/uyDFX5rRmsrpVN0cnpuFxcbxauU3u/L/NDNgoGR0PGwWNC2onG5FXNXY20hZ7jr5nBrZyr4SS/2FOk8TdwT78YigrGQwjhcEozVPJIQQ+AgT1O+4CXrIidzd3sg8dhiv+/k0XS+/cb7OjU5vrkO4H2vwDVNfpRae3wkY+CWC61Ed7W9njNWfxpWClDfIqZoKU+t0LfDJJ+wtpMg3XmBB8L8Pi6x3QCKb1V0mJE7vZruZhdNk5Jq5J83XAAQjpUFR9wwoS8lGnsmVJG0SU+z4IqCnzdWq1si8DBklzyNOpjNvwUnL+V/Xo1NIS8gpyq1Wd3ZQlZXqQ09YSCN5HxZCG+FA9iw2ZaFwGNu3rX4Xf7BkSLCSGkb4jgTag3dkJfDdSsl3k9ak2kr2poZg1/gWB/FnnbX1H8VECUpmzjuxvBTbO7GEIbZyER02tujtROa2xRjod6ZAk0VwEIYSwb1txDI8pRWlH/N8K+w35R5OUiBYdG9A/u3VZRIaAmJPXoQ2jSDuUdl33vCzgMrlNO6Bnw1uKa/8r6YhZJarmWCjmjQf14a5IXVVS5BOytQOHt/tjmxpCud52kBJFBwAmHT0M20/ojFmxPgXi/B9gxWGyb4P65VPbkZAsQt9tQTnPGvBbQYYsubyXkee/8cLygio8ZWoq7tVynYByj+guSsyZleqVxMkAddDzKRo9EcJLlx6wL25u3zg2//9s0Vx5cZIUxOTegPF6Fd6KEbL0To+jPRRri1FiYvdyaJxLlIatI7/4f8LUfWHQub7v6ktxvzki+3ERoF5LZPvlUcBfAsJVIXd2m4BiQxNCRM0oHUHCQEb/czUoCHFObtTPA+RJBkijgCWuLiqpDebUHKfqzudjh1sMvvhV3SH3ItafjxjlGykNMSFAmGzqBVsGe4O+UlPH0yyIwQq9FnUXXFqseIs6kpaw/eBW084dRQCvYTt6pSPHwEuHZSdgmA7XRYYBWxdF6YQI0N8LIEjp5IoeB8YHJRPUD6J3K4Hft1gV3J0/09uisoaZ5+DsnOaz95QOrfmlCjQ8aBALSA+wNZ9ZGCmZ5aUrn8kFc0ej2DyVBhTam8BHGOMAOCCkG7ukIqE7pA2JS+IK1gQbpA5GHqppxYrYYF2sYH16YUQ3q5ZeiNOceleDOG1dSCh6zGewJ4SBxReIXQV1DZiHMyHDMf+oU0T2Fo8G8zu0lzMj3HGJ1ECKxLF2uJHjgZrBiQr1OW4xrhm45R1bbecfBad7m6KybBTDIBeKJmNIsEbRs0CbynK8NY0EGX+1QL15Gt9yeQwMEeKHgen4B5feocb5mSrQUx0T4xqhq2KdApFvdddHm/Y5PvGN880Ocw9rFj2NG76tgxPgzjQpF4tlJzWzz8jNLytX7prtSlrVMcoU97CaR8Y72MhzG1Bp/VD9ku+mSmXGnzbWVw+pMODpqCGeaGVwQaBQPtl5eumFZelmSUEfi/nG39Ic+ig9XZl5sc7FEEGtDyGqn1jzG4H3O5VnJTfjRMvByNN8gKUgzZk2sb8dopwS4atxNMAIJrZOKsin15aCLp4VeFq6tEhGolhe86DFNAqHcddIygha/IC0KKgBB/nFrysGOblPKajhCw5Mkp7ryUhjYjmwHLE4TrwDtSiB4vw7QR3980Wq6aFDvG1qhZn+ok2MG2Y+70Y2o5ibRfDc7CKHWCnmA1z2AboH4Rfiyg5qR+aJYDuq/ElD+TCtaaSkEMgdzXGcT/pHXKZnvPF5c3iD6Uh5fEJYZB3xq1XlTc0MheNP4TeYgbC0X7IHKaFJ2/7p6Kfmzi/5/PT4YrLxwcmmb+01LhPuT3McI92nOOqkwgEeqy1YMZ6y8eT7UjDA5tcM092hbM98nUnHJF3BgAOeq1D+27WOcPCKhmOFsgPg1CTy5kBYB4sooDU+KTysXsHr5BrC5GJnL7FjGMaEgAHXxlb05BF3odSWH5A0Yar3IDZ9CTg7a6rp8K4RzFElrdvx4pOwiaH2pJMh3E58VBKzKB2Uj/P5TsTFJwgRlxZYmnguwYX1evZvLBwiQrP1zfosjUgBg74VksGu8GMMY6uKPSOrNu8Xu2CYtM7ake6K8ovwIEpH++86UcfbBC4E/TzeZdaKnUAXUwWOuGqx0vd2pJu6H9TuhWPDnPn+NCQWdCCFeJpFoshEJmGVjtqUF/z21rDQ4wSTvlwOpAhNFAdVK2Bo/+sEHvRlMoFBUnWtqXfAjelhK87dpOnv+Ztvsnt8teUmPZf6YxRUw3vmA/BuvAtuSogSTqalJn33QzaXquaJYplDvGBdaRtecWmoy5aomJLND1DEHYlSPDOlekRLlMQK0OIqfUSP2jQ8aBAPCA+wNPopNgH0NzWu7DWi6GekfERmgFvO1zn9J6cSgw7BauKIhtdF9BryE7ts7+HiW3UuAJg6oMToeKO7bu5bJ64dumx3AvoQo4WBFRVJVJafcQH6P72Pu9N58G+kFTywuUT7j6X/vM0lqh1KYsRiYtkwdlqq78VnFeCqpRTih1IBcfR0wSXyDMJu6SDCyXKY5JLxnkWiBVb8T3T3dNtFx/jxNHfmfI5KoB+K0r26x28feY9Jl0/St7qfnjl8omLe9jTvD8n6mfwxxn6axpvq9bXy4TvCeG/0dr4GzRfuT6czQoG+R64+aYcS+g1Cusq5K8HNNg4oIEzQz7qDsnV5oHmmcqlO2YGy5DnTwcaCMKPDRxJ8hRtYr1fF04nRDJ1CexFZTWhEAKiT/oR6glClBpfdvmrB9PqPZSjPFvuGxebfdAzz8vlePWVjpLLUu83RBYikhiDSFtKGA2hxuA3zsakKTwQml0sSsUvaoaJdh0CE+N6i1CrDor0+u5qGT1kgZ0kF02KxWGKi5bg0eKkVu+UvO9hedgk7Y5nbQqPfbzfJjZXgH/ly9d9cV8Kf1jh9lIIrq/URTHK1mfZoVAC3W6OzTdVEdrSoq4Z79o1RJcrMnmsQybIDvpGm4cVzpFrLVeSheRlJ/VrnaNOLyeAtP7xS7EvhWvcr+bFwsKC51LShNAngmONK4m5M367oxWKHDA/6122OXkqiO0sdMwLMN7TWikr07VZgqN+/ne/ziRqDea8Z42LrhZnAQ11B54cd3iaSIg66905CHWz2rMxv/XZbb9HpdZt/uEngeW86Y1PeNA5JkIwyaTy+/yVUAfzSr4mSOuNfVWyfQzT4DG3Sa3kqZoUkAX7rQaaepzd51pOquVGwrQPE+G304svZMAgD2V/Jtc0noTrzpLpXdDtD0TWC1SGiE4WrTW4CtwWcVGD7tE8QBmLmoeMIVSFFefPAu2IrvhBMZqd0lRtw/ER5JGp/xn4DRRWZyTT+R30qwav9n5UP6rFvuAJCPhjE7IjZB+/Yw6Mxy/QBSWWn7rpgh0hXdD7lXNTqqDRcChktwLPwil/+TsVnQ6yCY5a/VJZlPyF7+UfbtyIBK1khcacwaDa1zt6hoZ60G3OD+Kkk2QZOh2eXPvQnrfzCHRAGcb7bpuFpgQeTbJRalthE6R/eC6CJtrpQgB4uSVfa+c7GRmwnIU1W51sDW/j6iIF6zr4fbuitNIkWVgoclz8UvHObhe/8HEZ8wBysS3htfqPe7qNrfS4yQOaO7sudY+XYRpu5QxUxGjQ8aBASyA+wM/L8zoaBcj7q4RZKQxB6n67zIJuxL3zMohl7nNv5zMRrb9suGoK0y5z5KloVUIjjv3qbRPLgT0osPqG1Dmb2WlOO3SBLSaqNOSlAsHI6ZIf1pmXhyQa1H8UiLUPbWDWeFaaOgN0QIGlpnRHTwqAXQrXSXTpr94wwxiFa+vnRlXFbfHO13Ku2FQ2m+Yrci04Am4Es1cdr3TcfY9fdDvRDrmfOHpv2mBtoJM5WhfWzN83QbT3x4w9IveH6T0SRnEx7FXD5IZyKiD/L6cF6aDgzEwlqjIvr5yc5QDuduruTo6Sd2ltBwcafJ+ISnQpljhND0qUy2OrvpXbWo5taGu7wa+Jy/mD4WhiVsJMwQdK+nPfy9jCWmc5hHk3zzULt0Z0RaYF91PnRWhAcA+Id0qsCwcCyneVLaOtd5gKjE+l9oZUVmEF7N7DJps/QWMW/Bcz0IfmF5FFaeJ5zaoMHvzwHER0KejtlYzYUpc4NK4R+xj8sLWM7cOiYZS0Wqs7u1gBJl2HRcOsZDtGwQwwMgXfAkjyprPBZUyVwWMc1H8C1AMkV0wp4PbLu4kD/syRnRlL365VtJfA/qglHPdNdt3Kzg3beOXLIgMVj95cwtQGpdAn44Vu2F52L0+l+j3iuEJLnFSQgZGAZzD4OOQJh4b/YkE7LYrfmJzu2L4zpUwFdaHut1MBk57kkSqwSjm8mePlEsARRDS47zYiNe4pA695gd6k0fOpmUQTVEXConPkzvxtV5MKcmytqtxXIptoaqO1DAb1z/mm5jS1aOPhaHDd9caSIDONP21+tJEyD37GOqrV526NLG13tJ3P/kGS89ALxpme0Riptrr35KyjLUAzpeWUkw7GR0faF7mk+djQtwrhY0qUR9fL0kxDBWttY2ZbFtHm05HuyJFQYqhXSeURom0xGiYDy645JtcIkf1515mJ2WNhuXL6dpuqYrb4N6lJuJvtUo//WiXAdUdXfxY2S36HL+aN/Ofp9QxmolDRj2Orx5VVl8c1ZOyiO7H25ebpnfZNZH2zKW6n2iWKjSo1oIUnPpF3SRQF4zeGARAP62IUZIAbRvLb+ZcyxfM6njEgbzG6/AgUfVqG/ga+rVOt9mwKtsuaIjz5xdMZZFVRhdrXvs8e0zyHjGL3h5CGNls8OInTLH3JtnpoC6dt8yD3eT0zDIwnD2Wem3KMY3u7y5TEDCSutWHFjRTqtzKoNvdct8xaJBYOa/swOiXdbFk3aqofyhAFO4fzwQkDTE9FOw+uaRHLv6jotzhUss5SNgfynujQ8aBAWiA+wNQZeCrx9AVSEYhZYFQEo/AijHfhvTKeLI/0NX68UmBvcmdlcSE1vt/MtvOGsRttK8TD6ZidUeLvevnt9Ote2Km8X5xQBp0L/e1rN+cZNwoPLcnUSB9L+Y++jvkalIkVpYxf4wOYEGOgqDWb2/dBMZPLZK5K7sytubWnkRVwwh7shFqSwWWuEMv5X5pRBj/+1O02iIkBTzjQ5SDxgKrWv9P20lDFOsZQx5QwknJciQgl2QIBCcWH7AC4v6WCWKmGoP5pHA5xjgn1Iv0eJaXqKW5bVCUGPAlUryRWprqpJF+cmjzLRXmWIU1u7XnMlLqhaLz10WTR6mpc2g09PcWIDUZx4imdXsnOWdT1FydgwwKgcIYQg4YAyBhcY6AzZlNA6bGGyaXuSEWSVbX3zkuWH2QNIUM+WQG1r8pW8xMjb7JkERFjGeMhYFMAct2gNO/8aMTSKpSKb64bGZ0CrL1cTQjrE4L7PnR8B6y1MyXKngWw08ljNFSfVhFMYNzBpmobHNMLh+EZGtLCcHfeuZIwKVumcLyvp5PDg0eMLEEWTpQWZmg03ETJI4xsbu0WdT5lVA/V9weUZKkXA5JWiKI+9Mt2eg/oEdn4cjDKEw5t/63/+bCWgeaolqxeZC+/Y1mIf0d9f9T5/tlQcf2TKEkLz9zulb2/HBDIWSUSK1685RptQxF7y6N049Y4Q06eMGhC2Alc3c5NeklaAYxiNZpTHP6hkEn0m+tHf9uUbVJ+pKo9NlTcF8a63zpG+wdB8iCWrYf4X4bz+qK483cHFMdOCBrot9uK4rpOvnuxEkpyX38bqkJV5q1DpZmLkKvzMfgRGWvzUOmTwgCz15uRo21Xm64T85Vrcb8LWrn+J9279UzvKycsgaMNQZ57GL4SzA4CBglsR8fRVdUYRvw8UVQ7Y16h+gctKgyZjmGzMgFMi5A+FI5k/z/oe5J3bYe3ZRCjoVnPPYw7lBEvIF7EGbL3RYfw/cEuax9FZQzbZl8epF30DASjMh+ShjIUKfaiLfFEcY6ekPzAQO/kbPIqzx3bBRcpZqBLJ1quPd2z3SNAFHR08BFpVNpsTPvdNTRC1S4P0uOi0MPIWTx7Xk+HhRF0eSs43hL/uta3+iUGVtDGMvdsLZXHK6Gm6FDhgF3rIxyv1eGUcVsN0pG4kW4YmE2JeuXpk8r5dFd/u6U9XN0bMTiZ2zrpmZGChz5t8KSWFQfvgqrJYxwxX3GHBNG4HQm374eZDy7+HqyGGH94FzKa/PJb2SWF2XUJAC8XS+6ZTvDSCajQ8aBAaSA+wNSThOv+ceXN9Z56N3r7vwm652rnzpYaHO87d90hFQhh/6CgGsBNE+Fp07ujgI6h1nbBAWXlwujwS84fR9RXsEzblH79V349Pf7o7dX0fuMTaXq7zFYOKcIBC7rl+ykl6RssyCv37bUWH9rgkv9FgO+fmCsNwljQ1U+HdVRMx+XF3XmLi3/p+w54fCBLxheUejQJ/wYgfOEYvlmUoM6NFmeqti+kASHD4+U6luEnyjT9KiIICzK6azX9IxB+ez1ijKuZMuWXlx7fD71TRUSwE8mXERT3AjNENRjyhv7eZ2LxrUVolrscz0vJAZPuam2PzcEU82cnDmUzL7n159A02s9ntV04ytUCi2dl+uhpJPHiSMrdHa2zinlrcGAFZE2gTxC1hyx7wdyDaD4Y5u4jEa5q8RyqzrfAT9JBZq7AiYmpk+t0JWMELKs2wkN/MQP5Tn90FQcNf3ulD1Y3yRcogkXRkmqEfGFJB2F6Xrltma9hRzZf+3vs2nzzYd8njD0SzglqVYDAZGg2Ywe4o9j+MKgZ/iSryPBH3RhmkT9cXYoXPSoz2IGER3pnRx+WfGQ6h3pWS31YSWswg1VeRMg9QNg3HJ/gQO2DnlJS9MDuykdW/BmmQbcDAh6ahyzEVaDDEf2evC5qXg18pgw1X/MHAh5FeZ5+LPwb6Wx3JehN268u2i9QK0EoyKcT3jmcdvQERnWJ4B/r4h0yXZkL4jgKr8GlyyxMK6jt0GXtL+mDaGJtbSjfrd5z3BQQqqsLof52pChYI3aJClaf6SwpWy2/44NHLlfaBeklsKQgWK3IdZG9c5SV1TAxkShS6tXDMykFYjNwqylVx4jz3Wmgq7zNsKCUi2cgONL8Nf9Oa0d2VgC1f7wbXpFkS7Cdibu2YvmHDjBs86d9D4y+fXjgyKON6cdcJIgxBobS9XAWNrqhrEUsyYYRGo0PMauFGaFmk21IAAuctEEBzgda2bkasugaAZikVUGg/wie4UHpMjVYQ74UIQDSO77nX/GTxVRqJTYyuacaGvfi5xFChOcRneFJpJg/A+vDfk3+a1jLGM6oCFrOphJ0wf38Zwa5P7jSg6vvVlMLmfXkMfz2OzrhYq1Uj9W584oRkYbxysxAiDj4CE1S9hlWNnJLFrsyyWiD/V9JSVdf0DYEx0TVctNhRP7OlS0I1HU7nyKt1LbbQJ8XOvh8og7hH8mE0PNjfSje6y1VJ+G/KENGfz+Fwo2aBsMfQLK/uV81FsEs/5GCo+KUJi4OWNE0e6POQ++LJJD9Oz6RHKjQ8aBAeCA+wNQtj2hhJNxzrHNPO5Qr7wvs1OeFaD156jb+r7rSx7E80UO+tWFrJre0BOEqU9B1lwgxt9PymYiNCZ52K5HiUUOiIEOJaa44AOSR61de3Gj7a7nfhHpaGvWBDHkusSSymbfU2H6lNRpQcK/Aqm0M3m+Pdh7VdEcJ1aFmlyIFi2J1cKESR+1IZu1CiajhV2o3cXvzt6Y+xfYIajpHXeTAW8PNfWlre6ri7tSUVcuj009O4sK4nIZsQb0RrbxEAWNAam+vGMjen+tuvc9knCxcRsB6tGbdFDGn4/8Ze39ixAvKg2owKF26UyEgEVJTmS54bY15RWTmlXFvzsM5fEGW44KfLHlKGLXfE4mLKAZBz5+TlfW41sZlRVlPEzGDDEyHWkLf+Y8bGigUg27h/kc30WYopPeLF3hGUosEx4FIN770VEVN3tGddgheB7WwHeWVSuiR7Ptr2m7FS5ph06+Urnf9WlEF9U+tbLYptLfCWv3h7n7eAeD5DXAq7uS87VfTfvNKg3M/ICWP/ralZLUFiQbLFXygFLY/c4Sh+35id8oKMiIhkvBQB+tJzz4WQqZIKw37ckR8bsuJIBL46RD9V9q6hQB8rwYrLyeLUZ6hEaw0F+3wwUQZB5wV7v6ay+nEqMw5n3+81X0yXr+yR4CsHPRMLR5/Z7uQ7EXclvEpt/pOlO5BWxTKZonvHJRfCPmP/hwhpUY4QnDTWuLQ8H/c9PfKN4VBO5edEogicyGvwqcLt9DLsz6BoIlOn5wFhO3PKxEFa7Qntl60Y0aUdpC1wdTsH616xfQiSeRjQzmjCAxz2mc2pyTUYU29CYLlAHDiJT/ZBZyF/LNvpDj3CWgpXgkUi3Y2M9ZmVoMB86OKdTedhQxyld/PdOwG9ybeB4mdG0YfaRON5Wm80La95uC45BB4CBqTMPWWNq7M9JfWbKNS5we3kj2csNlo3fqaVHhC5m3+BFXqA8BqJ+4xRCWIRMCws5D+lcnxT4Kl+20WiPbr9xTLcjDvD08DhEbtIlpw9B3Z/rbQUQCS2H6oLgVBwRKu/klaNe7WYymPN7hTEmtFUzjyyp/iIehd1e4ClTBc9QCUse8K6xZFVeZ7sRPXEG+chIfzeJI+mzhnxUhsLaQV7fDjSeCiskpbljmEfDEOMPTfRo87tuRFGnbXPGmGCJdAtTf96p3fQUvgWyUo6Kg6dGXnzCzujQNEmQyIDa0hybXFCSHmX1buJVXBsb1QZbhXWpgopaJOB3E1ofJxy/MoNdZ8bwd1s3gL6R77QRYRvGjQ8aBAhyA+wNSUd4qZ5yQDAZoXUOndx4NjcrEZibExxJ6sM67eWJCd960yObjc2FEtW/id1uflleC6TFTZ6ORMYRu828xTVGKhRDIDnIuOR+DzbVH5rNJMcAgfy/XiG2MWl8J9wU8cLiRkWG2iSSdSsy9LLkg9/S2pufJTu2wi+MvU/+c33aJPB8ex8YOD9Kfd2gx+XxAvm4l5A3a1Etbn8EnOkqQBb5ZVy6A8LwnEvpBS1tlPai4nNKFDbSJ0MHPByi3+2hPWAmvRA0c/OsX8PnQtS0aMnfczJXIbRaW1S/FrfpAiNQoZwqop6cY/s6k3TxkOJDcqthsmctPptZCVG++hH4qQWzok9rs2Y/Sfoq17LLuGyByAA5z+/csShAU+VDnM7oUgNwc370s/0b7Nb5BEi+3nNKQILhTfOsdeMtfNRGFbxCnuj9NPt7QGOV+rA/Joa+w56RyC/hPwQTo80QLSmii5o+1bq1aGAtaVdiJLQ05ER9nsoIn+jYa7AaaOw2juNtVDSibrhmPcKOU1FrgxFTqZPSPTwQsfRzprUBU7IFKVeX6T8t9BMVBRY2YqylHuXtu30agkneaYlKgG2j7jy2Jghsd9HE0opqNQxZvo4SXMnH2Jgbqwb/EbK7bLiiqZAZHkfPjjzNKrBya1/aOe/aGTUWBfMRTQFt3HXyBkcvHolOO3ZQ1zhZ3dugxp2MGzgVin/OS4eRuSdemHzJmBHp6K99JHzMHMnRFPalUV7nB1lc6wWDJ8rf4yQiSPkXeFu0tp3WsE2Pc6yT4MFrerUnF9DxwVEdix8Rt7PMyldLyqj09RWZOquiJVhhsCL2zgci7DOod7UpvoNsNrDpCWcisY/QBWfWfCyi6VNN/x6RnZM5g2bYhT5XdERyLEfrJSLD1yf6xDk5skgLg14ZzPG0+MEppp7r6xEHL2HpaYQZmfj4NXkVmCdZsiq2oC4sM1hHxFra+Dmd3NvNqjO0mcNPHpTCuMCHll93sRNA008seIpULRJVrYvBJ/FO3B0nrDHLzW/6jZNL6d3jfFlPwwOS+JanpI2wOhwjoMJrY4lZm5JirQmrMJG1x8qCI9evO/GtXXE2G4ZhulDMpkJTGDWZLAuNcBJ2kvHCWxu7aB25fPA7PlWNqFpKhxAqBBQnAY7fgdiO8NbFWRq89QKVow/x7n2vFm5dW8RGFBMHpS5mv1+oAm61hTzgKbU1FxlduXPGzCttHHPs9FaVOEhFsOxH2YFysG8JVccPgMeLj06JuWAfzHlaShld1waRMc7DmSl0qMM6jQ8aBAliA+wNSTgVZbOXpZJCrF2297y7PQqco4kXlBwa9wEZPIdtwOVQqCfh4yC2Ep7O92S+AyaaVOyyJL6rpx5n8Qx0jSaxT22AHgzr5DFbNpe8x6YdFKXxi+c3TFyK74flYvHuvdQpHF2+nXz4eNJw5zjc6a98sKP+MFrs7rnq8FY7ZN/9o9Cf0HdP8A5Ct/NA9txb7cEFpZOvuaN8s0XpdsHDwVXGuN822wqx3gAEV4RqLkPG20HWbhB9eccf6y/dxzxD/OheVCwmoO1EeElR+HBhsxGYQHGVw4r8fWqG1aQQGuxI7md/Vwttm/mz3e0ckpEF7T9gAIrCI8ehxQfLr2be8O23RncvNKUgIAGEK4RRe7/G4aqm8axnOqzLiHG92dD9m6wZLe0RQyrjZGEv/ko+0KmzxaQyVdW6wQ78ZikSTA4leelHT7DpAPL5gdprCJYaeTCSNLEmaKGy309vVcjKrjVkLsvPMV6dz8PI9ucZlLF1+KMYMOmYywqzWhnJrQLdhSStUH2ZK7fteZIrCHipgsoHHbq7F5Dc0tRAYWRnck7IADBggYr7c6M8uLkFb3CIgSMN92HGgY7VRlbj/SF1N8iQpps4sftJngXOdksPa45BOqONVMUhXoTWhSdjXtxlgrht/nD36iUbR/qjtFqfKmX6YZnHpFlv/rY6eVgg6s52TK+jYccdaROtK79k9/WRDKEdMM3Fv6VSStMd/GNj2LEYEmV7LRh49JrqAYP8TlpbctZRf11hKkd0W9j8+81DcfbPqwhruLia7wO1TuyGIckkAGbZlsymVa1xWUi+jtRFwxlUwc0h3U+Ew8zqoZsu3iDZD69Oopw0VPkx1H9CiqMXyP1L5ZOuW95RsV8N7T/qDlcGkTw3CQ1GT4ghR0Q400gRprzqLtrBlxTY+9ClOYGso7lkJwqA3Vv6yWu7UTXDND0oa8imCpszMVfIE/NRJ2K+D3vF6+b/4R6yZGBJdGV+67ZK1Sp3yNjtE8JJJ6mk1Q09bfYpDk/eBqh2dCbXib6AD268X6SJyxsiD4OpF0zflKvvTxnmBIqmscUPf6g1WcNMvdzcpmzH62vZsO5VD6FcShMHtu+nn1awe1csP7VTmAAh3/l2H6mNHDh9AaaKcirdwxG8PemxTXQ55miWPdLa3PqQ7ItMcFzHUOicsnhpNIl+uDL40y3K4tgyjcEbw1t71GZHIvMbTA/LX3sPALYKUvM3ByQJncjjA2TR3LAU56NP3VtDK7TKhkTLVN3pNbWlM2+ZQm5NLgMSogZWT9xCjQ8aBApSA+wM/I34qKLMS1MG9k7kXO867ePllGqKebiZGCbzRoQl5zwyHYPU55ZAMZ2/lWYclJkPw91P2Ctrc0a9UEXGMByLPqBbb2SEc7YRg8sUGMHXNTVLU3LSwa0RBfOPMMNEmFUkvZsAAhe7UQN2Evct48FXqaxrCox9WcWZxVZzLqAp11c9borBXJNWN6CU6zqYIZ4+5cVwXscVynhhRv0VBAVu0uMy26sdGxnLueeK5OWDOR9WiuNXo539YcB7X3vqK1K1jdDt4seGdP5sM+1rqnw5L1WLeIIq4kL2am5Vd76YYXXuhyqaLxpW78AvQj8cKeYYlZyKPz58/+pF7FLbUXPzFWG9y70fdsUYNDb4YLGJsyFrTvdFj9twKWq8HaKVz6CYdB0/VQCQ7saF1ZqhF+ElFAV87G+c0bFA7XeH6GSip4U+h4z6hwfQUncjSvVuAi6vYh9WDZy87ylR13tYtsYlTmzcztb/KOu5Sz33TrUCuXd6oQdHYUfgvdskcIMdF+UMWX/Zhuuug+Wa8T1Wk2Tp5RzXZbTAAJZmPUxR/NGuhu4pOkUacGi4lvKlmiQc9Ljv6Us66EbHw86dWzQNa3mw90fZ+VvOfrSqP2UCsF16QCTsNtt9zbC29wp+UKCbFpcbLMniMi9nYnyQ2rpVgweQR2wnjJPYR3L+5FHtJVpwYbXkl5MZ6GmytEMsWrvK0cKhmAUolqbZvVTFOyLNHKbfhoc3vVWK5pevMYlMVHqic7UuOrBpaSsTpwhGtij2tWEMdO0FzXx65PGDY9YsvXoIyH1RDddVvMkULqXYz40SKtvMjArMp/QTrqqy/Cl0+9SORxd6aJO3IHAhHPdZItYiKUlcXpzbqlPUa6+0ChVsYpyfR+VcfJtg6dOxcRukRs0/MZVJHyIB/71HObnD5ctGY29avcbLEHyK63+OsYuZHIjs3SBrYiskshXUjYUwF4YDdiaRvnhzuwmtY/2oZHvjWMKJPmEOZQehzP5qaHrTuJz2cR/muKftWtXR6qXff9EVmiq1zNUKt2ON3JklasTITdO/Xa5bSagdJwA7ylwzrpvxrOzed0DrtLNiTaZ6pcqHSdvUSi9KMxcuz0LjHdf8P4onSTQto9GP0AFePpU04ns7Qfi7SjEFN0wa3awOFd4fSu3hIGptkvvHHDrEg5cVMR9q0INhu0xEhn07SRusjMFKPLqv0SUAPmcPXaiJ3YWFaA+ReRRxUSJaLRM0BSRf3kUyD15IWFyXv9kSE2hVPeE2ANK1ZAWVMkIk+IwnxLqajQ8aBAtCA+wNSO20MN5ZapikRwDjnaJ3bvh15nc6tGUZtpvijYxaCkHUd4vx3HxYCu2ziud3wHdXWEknHVezAXO/l8m09uLGgCsol52SIPVCYCyRe+9JnoE/uDPA9fyRoCc0SVlre3KjOzmlTGXMiLD5I57IA31EFjZ7pEJg9r2avrUANuO3OLIX0iXRIbGFToYBAgnZc76FnVxd9tvcB3Dwb+BTxUBS3r0jWePurQsV5+0IQhrMACZO2toFA9SjKutU/RevjvHJDthtyFWwmW2coXSg7kgytlFbdy9jjvko88Zu/LY348LQvctK19HTNcLy4Ssmgau7glrR7esOcK9QK37Cbr3VCNSKsdIiKBhTAc/gIihhJJ9V15Sm6SU3r/PJsaSYDzM/l5qYH7WoO4C1OHfB66/H+YclMrk5Y260qFXgIx/LhI0B1+c8h4tMvjhEjdjDXFI3ifaodjBkkG5BfcHjqRSkuhj39mlr+eVj7ab2oh5Y9Lc3Y3gUPmjNMvjT3+EzXZHf0XBXHYcf7lWmCaiprnBmDZU0pFgHgFCGEyvJ73iY4A5DXCqMwjpRhAhbklilm8rNneNSMT5myx24Bet6ITZYkyOKtMRRXWMAKtk9nogtBJKEWOfmZdInlGPD2XLwRDwoeYMujTDDB4XBBBxJipIwZTVZBdI/4aWTttCXgLLhiRaoVGa0IXJDLgTn1YXmEPglG0FfbZONZOYBZRAZgJd7hSi175J/IkkLJaye6hc31S/Xrd6AxNxFzrwJ980HjefiAsg3VRzE3qo6ONy7ebruU8XHFPDeoputKJr8bBQPNTMIctutHLlQbgQ1Kmq9cuIJt7aRJCuWDPCw6OWBecc+UUi11DetSS2EBbASngrzKxcbUyZlp3Qb7/OaZSW4z18TOGkgROKzLbkRIzuf8iV8Sk1RHVYKwXNeqztlyn54Hr1WR2CWXSOGazTCpd8rjEsvXjFpRqc26gDaw/4Mc4AVWJojflBwMeT3LmJ6LEAYyeb7PRAmkFHZpWs/Irq5uDUu16/seOkaruC7LXE/Nz3TebhLxAVPQ5HyX8Qo2+sfEPepuhKgiym6tFt2+o0XwEo5knDXhB2WSixrRqDdff8TwYY1YwMpGFuoXTDKiuF5RxZl15m6ZXYXtCfMvdljD20g9sFd7ERbhiEqfAXsFysFBQaXuN+5eev/Tc+1+3lvK9ElpcRMAUBtY9gudJyT1jMaFdRqbk/XadwSpEvFHwwz7Ulo9zq51f3UaBZen3gYPFn1IzRWDUG1OUqQmZefOVLejQ8aBAwyA+wNRlCpJ0DRJXYVwqezM6MN1KIU/NjnhdvVyFJOI2FvzZt7a7bQVOUfILOvxiSYE+d9clKdqPsk07ISwkBC1EDs83+DH565NujAY3GppXAG9i/eUMnL08l0F7877jo2PVnaTGxa5/QeXT+aE0TxWmKSAIzGyvWIaDYcA2yvOo2UdRym5AVsAzuuV1H4bvuWDXFt1pe6mVBGDuaWZ1kWiFkpwMpYj9IRDxW+r9q1YmfRlN6Xca0F1LHfE/Prfrn7/0PXBQ3q8q4rcpjEiZzhqTvb3/CCbE+DI6dUCmvc0wM9Vqwtj+T2teott9GzBG7s40NBGvITT/mUQiffUBd9KjFqFbxxqfxYQr288UDzydijy4jjvgUImwbatRsC7tIXw/r9KQQj/5j0u1hPyqND8m1TbkfzjA8yWIjtKqhtgikEY6E/9aZ77Aisq2x8vLCBvrGkXOMkkZWnef4Eoq0A9ZcRnAVw8tGBi1fqv259EFfT2zCxrj2OlQ0hkAYbVWSOAyQYvppCwLwfkyqP18mStlDGxdfFz/L/zcpmNjkahJM7S5MctQ7AmwiIY8EU8CM8wSxW/WJNmL1WMrRucWuSxHsUPismbMp4UTHtnfZvWPgFeU9t7iflhkzr1qjDFTrPb28C10Lv8r0cJy8wm8fOdUZKGL96nGq1K/Rk4P4reonpSwy9c0A+Z67TFlrjvBZerlNBnSayTrKkRWiUY/T6+ASVCi4DNzEkyJ/iLGGv6AKAswhJUdpACly4T0A4l8udS2u0qS/QYijFTPfg7PW/wOzXFU7NeakqOoprgHN3JMr+Sjr3NyAbacdC28oSSPz0v2G8Qgq7ndt7NLDsku8AUgusBUIx47SFp0Ncccg2IbKoHugMTLw8/fQh+ZOwc+aoCq0Dzx//psyPdme3fHJpl3GZYov7qwz5idIhQ4vCetrp3jNdEuMzjsKkFjMcr0rmFklcGSDPjCIuDjGk7czHWxj8tBAFKQ6r9CBl0M63Ld4tAwn5+72NH4YCR4+aDdCGCMdfwk3WUVDmi4N3K3w53ABE38CnTpEQ1U9CvEdx2OZa0CePDMCeOv4DacBAeo2TBexE1F2TGMK4LtkW+Eo/gsWIWjAT2ST9iNEtjTMjS4EA6mnAjsK0WGQfbp8o/MID8+SyTrRCh10NyA+MbdlVgXwLiHK7+vGYh6JGecvaa21v9opocQIBcDVzvyC3Wci5RRXIb3srwCufg7puyXNJCbttu0UG9Z6MSf9phcBkibqhGAst1388G5+A8KiSKxWuaL8OjQ8aBA0iA+wNROhBcfrhHJg54JVtjBAv19aJZR2JAsJrp5tAMDwkbbzJFuVuTbp6Ff21Pcxnh31AiIaM7RnjWT+O8FvBlamRTW5Tkb40MVeaQEq2BHT7fVwplsAV4xuVo9qcdyraVYERrqdpqAwnKEv7DVZ/xEYjLIt5/gF0PMe2bxpKw1ygv+qwmZYfF6vfIt1TBHLtEacYTtU2s4OfJYbQ3gRrrbNZMYJaal30rF9zLNIIb7lnVWhK8IHDQ1/GZBW8Sh5xX9BdQNI4nGyYGtVevLxHnwAb++jGBqQ29Eb/pzxtHlXYhLAVKWKklMbISz9qbFwbEw54NzmB4k+UDUOBJIAxFDfz5yi67lsOmF8ctY5WAHZNp5TN0zFueL504YwnVHPwQtq7QG3HulZJLYlXqcYQlP5NKmkKh8BdeRT1RukWlXWLaoE+oYs364lX0pPSQ56ibWQ5M8OEe87I1Lio3/K7jQsldfAG9N51Pr8tgtjEOLMar2sumsLQQ7VUw2bbyblGKmaVTmVQliM24uuzbxqkWSIsp9zrPzcOnop5qztFLouG6Hflhnj3bI9GrB443LQI6qavFc0kZytg82OAIMFpuXo6CJkykbV0btshR4mmi1w/ofY9EWM8nzC2PAi4HoOLSU3xeN2mRmJutMN+RNNvqKdq2hESTnZaAuBFD+o5PyONmFwKx/d1Ua9esWYMzxqoXv9bVxHiDg2U9zk/dfOypAnESAv0IHEk+Q3iSx0j0qzlNlyuF/ksVhHlPTkjcdGFvYvM2CekpAOcL+L+l6JgRmyza2zhIl31JPV7OdVup9KAqtyL9o/oiJnTdlTY8lhHesXBIyfdOLscDXX6GSBG8CJCUUINHWSM2U0Zd5n8kl5mbZpnup76xXPLCujrpEf+Kjwx7QaPt4Dj98EQzcDC5IuYnjFUVHuBX2Axsdf39y3wkmJinHfgyLELoPklKlZZLqisNVy58IGs+B4Ag0ljMP2QX2wOHKR0kCu4Qg9MYWukDO5+kZMYQRINFE1Ey3PZaf950iOW+9gILHPVMM7afH5J02vyo/N+GavMwEeHHrmb8EjNKNy7WKnKGnjJbZJtJZFRs4BxUrkxMbFOHiMxYR4U8BcvhvlFaAc/SR8cX/jPnwGMy9yhOwMG583xkS9vhLfCKO9pjk0Tcn5LKv0yaQpEv2e+6M4ksMS7HMAiHH67GeTCP8ilQ8e34udDUNZAJQs5v9qj27GbQdZ8sNL1aPskOPLiNCXg2j7s27GFPldCW0oDsOdvg3jS8OzNijCAi5xejQ8aBA4SA+wNDzVHSqnDCJ8Vg8jtnvTL1dsfJ7Z5rIidJV+GwSK0/hiCHFcgN9ENNESF1rzPO09/Z2FjoDiAT1FU0WxzKiuoRir5V/aWqRVt3L1lDUYty9O2LI8jdrEje1lcqFeAip9btecjDSzVf4WSSMeWnEgf1+VqOioNq49eL/fJivrjvKNIwXZGGsmibRm1vStaG8wWvhWoCcCc1RpHHcuJtcljI4+hyavyV+bNsW13c8IBQzVISSo65UQdk75Ybppzck2krh0HL0TMNoMi3C1sxMuqwTKLdpWa8JXUPOTqraa/14iDWtTUA5tic6jX3hwQ/DX9GPM+3u+9/S+z2CGOrXBXi8hPZ6cDX0IKd+2EX9p601lxgUxhDWmAL3aelH8H7LhVMhD7X04zOl5S4YlSi/k9wbm9pmSLAVL5NUmHWQrf1mVCw3FDJoF7DLvhNvl7CUuqk3/6HFWMLroK0yDeX0dWt1V4pscZgKqSye+Uj4t1e1XxKIaM3Cxy7ve+VhfSCSIeDRpiJtS3bAf0BkoBW6oztPoK3b/Qlq9sehGgayPXclu/V6Oo28jODbkWh6CKHGTZBE4of8pe4KPBf7G+UZUR3Jburgrco7X7xGKvCDwhNclTih3aokrCVcEsudoJr9WDLZ47FzGZWOer891S1U+w2DDzXhgbn0nvJFNAuCoqv5U9gjhugOPDHUWw8NAXdoROOvEn+DaVdZbpmTj0gUzz2pJh+DgE8GawvI0+RLzkZvlLDVR+sl+j2zYDkroX8DotsmuCxKwWPeO8aSEt7Dk8j20B5Dw1N0d5fEEl5xr6e0W7xNCq3Ri0BNlMABs/QGNDMX/e9+ddFvA1jGhjPJCWUWo/4IQX5TVvTzo6fOs+sa0IKHFyfaRowslMu3bnpbZRmLSrRRqlpF2g17tZIxHq9OnniCVnLUQjdArr8QpOoFFY4rHhVOhEdHSx9sjxnzyq/KRPPcI1QrPczdFD8jvv75+zd4Mi5ybmWzeb+5+uMJv9aRHN3FRpVENVANtrZ2gp2HnxmvZj/qTd6V4n1IIUR0EKuPad6WedszBgCSVbdhiljNgtp/luxbBS5F0smc55/kox7vmTxe6azu65TytMYaCAz50CuIMeElJZ3iysVRZE5nDsGhbr0aYEZdsOT6TxC98MxX53UlYpfaVFHp+gtDB+oVAmcWDbKBHRpvqeFYYg5rftNmdjS6S6qO1iYmtgPr0HFC9lGgr+DRDlt6jaNU3d9upd9u6Es+Y7bRFmaR0mio9yBcwc+X0kEyZI1xS6jQ8aBA8CA+wNPou4ol3nX8raVYVfPewoKtIzdNL/KOLVKRHmRm+SQwwvUHFHcFdcajzppD3MVxqadMi1i9ayxUyfsFpWDJztXq8sB59zZAiesZgAr9lTnohz3X76eWBTX42r5HgiAa03Jxduvp2OI2pB0AO7epUMEC9BC2TP9OU3JDDmq4B8CUhjjAVtaZk3849aI7u+G3+6bPCEChVGxThQBOCqKxg7F05yVBXr5ZQAdi4o5qA4jd7YcVoHu8NPdCYsynvDV+kICWp2K6HVoOzS+WPw/9SiJ3RX6GuNUMvsivCa1vBOXwT1ZfWIbMUD5RWOsIZkUbJQETi3WOr+WbQfC02GXNcTUjB1/iWG4vMT7K30KPvYanQXeo1ZJMFHy6YwP7/1JTO5+wA5BpKsRNStuzvn8DgX/+8EKaxBj4MwnWX/TGpXS0VGbLzo1Bwne1Traro+66fNuGD8Pzzs7Q+ECO24dHzYK52+zzGJ/Gb5MSr6fUVpMC/e0fFTChVygfpllV0DrfcaaEJIHTyOtdReSolCybPgfCA+yo2kmx8D9ckwImiiaOFIO9w1ajQx5I3xTXbv7xg4hXCzDsEnSBX7qvFOpjuZL6LWZwJuY3fSjMNO21kTkw6LmTw7bshhB4HY6BwYyr/x9P52w0I3iG6Xb69MqDtQ6Iq/hliYHB9+vYcnrOXhZR+9luZQotkghPKVdYXLquIBtRTB9kSE0Bz6iwreocXUcyryoh/Ofk0zZzuab5tXqga80cyJV3RNfS5GrKj1+g+Xd2pDMu86RmX70gmKZenyvhFAdIYjssouIJ5l0Ddg7YkEUksRBE3qleUaQmeN/LQ6y+B59BkUpPWBB2ID6bb/fT89XAX3v9b9d/z8DWM2c76TWfE6FalooCbX5aHrg+HFCbFZxZmOOYTK91CA7Dl0cgtQ+UXOj76clNK7U53DMQ4EtSzcnM9D41U6J9qfIqzrYO+VcjdpIBTkZN00ZTqFswOoy3TUjRIh5h02Xm11z8mo7boJ/gUGtN83svwI+5p5fXPPYFlalOD9OuddZsfaXnVFSrUE06KCpn79q2WmHWnukzk0sCWGcr6Ch7lR658p5wjzWvm0dUGMuCv5aijxItZ1RUIBPgNQJiRtkA+yHCf1Ym0d5+VtlFxbn/4FTH3vkPMxWCWI2UKOiRjmGTXXefBoMejZu8Gdv6wuzR2xPzyzcjF4+vrEsIO6IvhJ0HuYAB09i0uu8lHpxaUi1paT4ugiXIedEDCJy8mPv1GB+phKDtfi+M/jMLFWeZ43Dwx6jQ8aBA/yA+wNPpug7RvnfmZTai1hezfWfxXEbvxE7pDc5h5tXW+jUBSOx0kWeJ7v2JFeRGrRpIRvD8cCTN888wcTPgIf2HZMtXhzm7GPNKqj25cCbitIZrt+F+Tv+CsbDRIIlK3YAFuMd3RYpVYn/4u0Ky8EqbhnVSP81LGk8rqRpa03ub66BfBIxZOY8RTUmGEJ8W3jc1f2yGneyG/OHpfcnU84Mva6K7pldHUR7U37Uh0o42ZD6+27tmvwkfP4QD9wKG8Q8pGJzpSj1wgPAiIcn7q8nAB8vRH/sCmrG3GsZUJ4QrvjIo+naFii5g0hYqIrqHzQ+Da2ZT4NswXIS6ai2Ud/ZJlSQL+toKUwMNK0vyROByJ3I+dQLbp5bIVlP/0usCMym4zef+hy8iqCOA7PpAh3skUkdNbdYA1tp6lh3JzV0Bv0/a1IuUnHbYoQPXs1RLW6JrmfKoT9HVqX0Y344Gbyz4gCjNQvo6xyVAiyLE/7we26ke+SpZpex8o60joUrnWYi/TFhZOBrOBuxJQ7hD7WTFz87XO02M6fbjDuJgLGdHtVU00TV7ifHWvsIkfJmItYIm4qnpie8U0laYi0rM5+tLfSbLyyKR6iUn3+dv6MEUur3qOo+z80W0KZSa3g8NehYGU6zxYMonvBsmA+WVj9jtNHMIAn/nIavj+8iM68T06osAZR3EX9kfXJP3ZsKI7MdNXmsMJW5ZU+UOGt7QmF8tWrx1FpiN4PF22UNMK43/h1z5BTVqdvyA7CwEElr7P/YIqHwTtfeEzMJrxTep5BjY+AqlkOSuX0KY+eoWj1Hkpw3ttlwgCFnYiYlIf2N7qymtw4n0vlGibMSUYBoAII08QknWsRrECfPZg4WoyhIS5Pvv4Iltt97F/sVoMzGSluMeM+W0mWN+SwNW333gqHbv3g81QXRT1pO6n8WG7hdKLQPTqGl1ZZe8kFwbuOc/7QeMGhLi8kYo4SBEFtG+q0kFaSdtHSw7ih3ZftKFGpdvA+MjIZ8pkTwL/VKhx6C614vADpb9e5Havzp5TDEhTrwfgZHAHI6k6tKW55cm3QF7fbdat8baXoC+ZXo7/aDQoWoYKL0f4E9v+Qcir6+vqGzkXzQa37aRthZm4JBmrBJWnQsUqgBvDMyDwjj3v7Ahg2iHpD2S/DXj3PD3UBGErTEMFuhnivdIS0yuLuH/u5O6RUh/HaHy81M/vFnWOnUZzJjqrZUS9aAYOYI9b766d85e9srsaOeVdspIUYCbVR/nkPN1j5VIDGVdJVbeZRYHeSQ7xejQ8aBBDiA+wNZflE0wL1pcPYP6MAb+8Q2lJ7E5UcIapimkIsvts3nFb5eSIC26v4nKR9nzVe/8RI9rf+NBqjWUHrZG9MuQtqetwa4yO+2QG18GSJ/nsaly+XJYxReHnpYLaLlBb1JAgZw6f/X8lN7tpNRFVo+zomUufBzlT1tVYGwSLQRlL9Ic6dBw5jQ31Nj1pVWzaXkeaxmTOXN7kcwRAhWTKKlcQmGKlrFC0Inw7yRFvYajIQ+URtbBFUzeFzUMCBOCn2OFeBXEVcYlioAk0w/uQqg5qOjgJGDZdTAP+ETs4VdS+KVUY0AlRuTI15QJFkAkeDeH4mbXSQSussXAiz/ktiYcnqI6KVielSZ8oH34n6ztxeaqyxkrmB+aOat3G/w7+XmSlF8EOORoYER7QpaT4hCT1bDBouGrDtA4Kv7Q3CukNLON1AFv6/GTSMXs+dumpC0l45zPGisbiLgQ1lKXqPhpMj3elbygMqChwUhlVSqsq1yjdnm/Jdx7vCgCENuxVPuc4/CksxZ1raCJDYf5o/L9opnGG2gAr8n1H1S6wB8VNledNZM9IyP28yn9TrMjpEv9TorHqWClF6uL6wwO2VnDQhzGH2mA8BDHWrYqYow6y97FO5Xlqtl5Rz2u/NF63uvhhs0fHahbWWlbMIhqZ6HRdAJA/b114Ic2sj9+Zvp3Ce0NTdO4CRMKckDKaWum61d8NXcZJBeg9h7Lnem+biUi/+FpDpGSIydW0fCDbZ1/mGkqQfmuboddmdD6NvDWVaRY0rYHDInH5m00nHDWkxoyPMrfs6dyeSpkfxGLAXXhpKMEMEUViMlu2EsWgIeIM9VTjT0gLu8FzvnKis0DbjE9e1VT6awkcyQDqN/b8uBbz/xS96u3OomcmVMnt/45OEu08Ndglng+vUmpkP9TKQQw5CTbvvD9GcDHMQiPnEXV4WouB7oxUCBg4eQH0VvfBtSWxfT8VlZnjZR2PuseHlj22SmYnaznOjyJ5r0xd4pzrEeT0tJIH1TvogWpkdUxZ5xicLcr5jU1l2Ov9X16S0sjsfGJHwiAD2pEkRUPdu3umyHPVPsXI51igRyDejeDnjPnlpNwM5NlLIQD4/LHAGTArd5Un2qYQ/mbGvkpcT0Tdd8ju5n5aysm+mviLERbOil1WwEkYSk6T5EZmpaM0T8XuwlXtUeISkU1f/51SJ/xrudAkTEeP4Pgyfb8GwnO8VSjlF7VSsJsII/8sXNNE+bskR8nadv9ixOcZTLZFyOB9fHaGY1oVbNd19PTrRUhuaLciWjQ8aBBHSA+wNP1s+swumLqxJ9ZfP95tEI3aVG2ksBl/eAqcFQqLt2FHb/CEmu8dXv29Q8WlgxMBEF5K09i34AFcllJnvmDjDeaILQw3sN9aJ4M6IMcvi/NoWsle5sgjAxQ52HmaI4EabSM963Ug1qUeFcmByO6fD5YMuQCdfGFKHCHeQLLifal3TdCjxXp7DKfHXoNhgTfkX5AO84IKweQl1HEnwAp7j1OWEOesukT9qv33xZGFgUUIhoqdHa/DHfpEAii7hpsDlTl7WMBGLl1NL6oa0N78b5fgv7po+RWX/NhyIHZcJoHpqR5/4eootxcPbL8tH8a28yCv90OQw2+E8Gvq6xULVYqAt5VFJtqZxz0PhCLd3xy0N5/nLz/FoT/G/mjAsprn9TAwIAZKv/PtpZ7nQb5T85q2WJigAUts07gxk04grX3T+nf9tt2qZUvjRuH4/jzqTpHmFrrZvTYk7Zi5WTtvu478mDeO+JCPXTTpwYsEqK68z7uVtSHt9f120EFvnUjbXbDMDcgL0Td+4ONLZuSj/2d2GMY1t/DB2ttHSiiWypPFacrBVnUNTWcyjtyE8IxCy3xFIPxBynoS9/C3GHjrCV0fqj2+k7lyI+3QwDMQI5EZFkKaOlsLqmMD5BlVnIaaObvAd5q0TilGGa5m2qoMrCJFUyE4+827zjyoCEmJV131D7ezzxf46o8XbGoR3MG5RFKUjcKVKBVnXZXp7AIOxKk/X6+ZhTrIg4ZkI/dQEDABZG7Vd2kd1lI4T8DfJhd0chuJD4Id3oKdpITXDXi1udpuXodOnef4gv13eOYenVTXCq9Q08OiEmXniu0kF+IrcmiMPvM3FaWk55QtlnSADJRDEhlcsNSjK9XGe/45JLlYYQsgdlm46y7BbzyNWtUGIBq5AxdhWWIxRM9MTGUnmvZmaqG5xaK0LjFR/B/VV8uaPpFEDdCrWhPuCowFrSHbXHE2mtcfvj6b9JoON1BkhJCg/XlOacUJNraRx1L4yeRhVRbZn/L8cAe5Trbm0Me4h8apvBRnuRwaL13qIQYPxEYibDLrXMWwmUI/Gb8ILynM5jTx9RjDNAA/dlcsvF1HjLbeIxetXFktZoS6ZxJiMap9savpNHyMyoxb5kA1JOf7o9hji7zROSh8dZMvRPsLB2GrJoCwtoBEaRGcATmK70t6tV+dYQv7w+1XFazNDM+XFIEBQSX7rUIEQviYOa/IzSwsspz7Ft6So40J68rSyBHM179DMPuYea2L+YA+xCuRG2NwoexGeuYEdPFGCekjWjQ8aBBLCA+wNSTitJat4dg3w9Zh5Hov0oclH4QJ0OME5T3BzFau3PS6S01iUg+F/I+thBG/Llw13wEeicVAm68rnfkb6H8xnWFGsAR3HY2S/sfSOx7SkTg3dgxBkX+HKQklBuEN4CRtASu8dGlIkrAFI6YMQCcIYrpf79ryefB5aKoNLbkaOkbRhim6HKnFPb71JNeb+I7wDMtplfMQ+ssTdvEv5I83mbBRWqx95yP2J39r/slPPIZ+pKCRzO4YemPLupV+kqKF1Z/b511gQqtrPs8WKmqqc+3gxpdrh5EIUPRm3sRAH5vBzjOLhAL/XkQCD4dw5DNCELsWdhNPD5p038Quqlp2n2mU25mq2Axq6P/Gqe0PVxWi8aTnJD5wOa/3M+KXHZDd+mOy9mOtOnPDi4nVvt2SWWAAMb+TlxOrwbV2sd/S+260/VRNzDHi+EFUt8Y/mhMpteY/ZAqjoDdzKSLmsOMG+yuPOQE+dEGg3+1Qo8w+cZjm6itoeRWpmY8r/a5qOVpUlRqkZr65oWk/1GhxiixQhVo6MvFK5XiWk5gtFfg4by/WwdgHGIT93SazaEHaGW/XulsS7W+f+gaeZpIFvuosU97mc5azzNRHXuMQK3/OlTwZ7VWkmwLhcgQKF6ekKDzjhnXJthPv2cPEz3bE3qQScQQ5EWpG6NkND6HrCYIyC9MRzhV091/5PF3jyYJ+/g0VCzhfE3aRKqWmVPY1Tl1zfaG3GlUDHeOl78ynBcC6l+kk3AqtffOnCGr9L7MRn7QjJ3NdGvLSVBxKYL6Q6yRjilyjAHVXTY0vQv8ZS3rFFlpeRVTkmtmvhkwXyJYwzS66754UBb5vxBTTq1R7J1cWdeURHtZLXRuewZWCZSlkX/Qbo6ocM3n9L9YqEa+ixg/NIGbUCledrOLOd/2a/Lz7IPRx7SKPFz6Y+37KRBj+afokQFokarAXOiq/onduojU2b4VTORdsQuVHaH5/+3U8Z6QkQ4oRoqlemCf2T0uGye+RUv6LSQagsGBOnzDG8OpKqVO6LY/qSrci/hYD85yg6wXHlN4OS2j9XNpZPoTXuYxwOOT9RKOpBphLdgqZHhpegXcVVH0Swu1hdi3p0Iba7AgUXfpMJg8gZrDDFC1dYCN2vYnjNVLIOWcuAzZa+WJRVYSlNEw9/i9D5hH44jYyOfs6jVkSmonh9PIxFFeGOyI1GZMbe+nXuh9DKyUh6rxt+C0VUf4EUyrUaQhhILDRBhPSTM/S1N5Kt52woCoilEZ3QjeSbdJI9QknbeDTIKlEyjQ8aBBOyA+wNR2Dks2sDwldE+U5os+0os6WSf5PzAbo2pvHOyzoNjN7CTCMRfhkJI8W5jACU4yTF/F7rH6LC434FaN37Wntt8dbmKsSrfhLRi0fh2brFOfaWzFoOBIiqCL0aIMq+++enIUHVcc03Iwt4AUFsEkrSB3I5asBYXDd4ik3qkVPRtR22Ad1CmrWqxz5cClRl8eMszKK8hJsFUs1EH/Jh3l+gu1aY0zF3ra9EjfoTljpmPOIPIhD8lOvOshVrtBtSFARs64CaMqLIy5sGL5rYaHxbZnj1HQwlen9UAyM6kVucg2wm7TB0eZG5OjFaPQACaUMqYNk5+11lSuYZ/9M9/n+dB9THI7cDkeNP1jon6N1tKvkikNJg0iZ04oo7hBFHxhFYq8mmNgeN9AgSsgHdrS9dknzWZkm9tQMsagh6qAqIjLlIvCLHQn/009ZLDztTTsmJtD/D9wK6jWvyRs3ZimMnUD/WdEFQYQBNnHlM2/Zo8V9j83ohBRl6CApXmf/KPyPe5TjHyQuIGZ2wILSepFbJah8KmcxUmdlvYAq1EH6KCptZHOAdSf+I+GYockpqM/TEVMMNaznMKRvh2V7TrxBIBom5CxfZPlH2JD56uRp962YfnI4VxNilQnsap7D/h2Mn+e5d0sDRxw0PmgxkP8RiYiwReN1M5Z9y8ZqIbdcBrxiX/weZEg300VY09FTOY49oMFZgNk5zxY6yBj/JrJjf7Qrdi/AC/4FMk4YPKhneOZ5LxqtcvuaAgsjRsJ+3jN3Bmw6oqqSeGyiK1IXOD7+pgH0gWX+2UfTEFVjg8LfSjPOtywTLlgo+JSNNE+rVC6ni9Qcm56m26QS9iJEF90ShvUBm75mBM1VxRrQr8GyANjniVBLasNugoeQcok1kngV72Shx7betf2xlUs7tCH6Tr8u27ZgnCpiUt3ifKh33TDYhULKuPjZ05l7rLdOt09hwWb7fQNRmC6/DMOWK6rbwnlZQekMITR8OHcnWZcKAzWTvZVNUlghNkLEWjzicwAYUX6r4pv4Iu822N0vvkRGaj2wy1qpTc8cOQhbANlZ/yYwb0GcY9hpYpLYrmbCPpx9Xjb3CBL3ecIlqpRnW68HlJA//RPdb3I7cuBlopyVEpuiHFooJnsr7MLwW+csU5MHbM2v1IGi6+vlxeiN3xY4gkD8KZ7wmfVKIHpDphNiI1lTDXG7ArVLQ6og0VB85CIlJOA0BHyOopyPgnX1GRhoVXRSnn1C54CSmUSah3QMmqbAEaCBAdY4hdoLkjn6fBndWjQ8aBBSiA+wNSUVkHl7k6f6Uq47QjRuZUUxuFCtBphH+bE9IPTykEkNirXniTgKaRrWWeYnhhw/OHXtuuRZyrSQ8zvXNZxMFqdBuiViUpubGkszyNrGKqt/Jqd7lsBcMMAF7hqcCU+rWl31NQnMGn9jzqKERDFLGpI14VTeETXtZwyN/M9BNXir5IrnW0vfG0ZkHf2wdAVGNAyc8PiSbTPGwx7CnxZ5p3HD1MevypVdnn5tKRAEMBFfFj/XfTqtEng9O+j1NQThFCuVBNoz3Eu9VMIDe4/ZDW0nIb8Zu1M0tYsSwKwRv0PVgawhvqmxpnQFpmIq9+TF6YXHIHookXYpXKupPjuVE9sq1c5yRD2w3o7r6GPLrHB+C+CIXyKQkuTTFxv2uc3rxPVhpRuRxPwDPMUwg9zXS0ihiYy7+Rgq0OF1v0CRHrk1n3I3OlANKYGiUYEkcawoGSIlUhi1LN5oTpGdzZXGtqSRe6GvfMpntnoiKaX66zYIigJW6sO51QMgolEKiYSZPxo1ZMOkDiBeTJzw+4ClvzeR+5dUBSLdVKqDasT+JoJ+p0vZq4bKAB7j9ktlwVwvQDoxz48/1lJh9l4IpRuHwdEEU9kyX0GpWRyI47rciJwE8A9pOBNWAERb3UN4JF5YGdQtxOROv+ryQkqVgNToK18jiadXwTvKC2po+9wCDN1SyCtLpK0Ecyq4vaoxNjExk+g98Z7BrYy6gguINtarwIDmccwsQreSWBscaxKy7/yi9KGYuEsdvAo6ekipVocyf7FCGwefwOnSSGSW1fsTDwhexSqU7JAVIyRQxTULi476nvUGk8nSaar9AcUyn1ErKvqnCXghTFvV9QmwTtv9dtP5VkYqHerh8mt+4O20SJDL8YW8CUs+1Gul3ievChiIIaf/LuGV7nylYilrH/ItFCkiq5Ezp0rn2p83eSo7z2UxmNraC1HGIMS1mljMcPjxwGVY1YPJ9RVJEZpc9oHiDZwbz0C52O2nUocBTVyZ/yC0UtrglFkIZpzZxqeNieaCUelB6O+CtgUNnNC68nwDbySpDbak3i2cZz2JssmnBxwoJubHfpGZIeG9MOcctOa27SQ1Ccv19QRGESb6KIKDuLEgjKZUXXDFkQ1S4KlQVjg+1fjRiVCr99/1vOX7FDjUpzIyWOEhWvZUylmW728dpcgJlk1nYWVzBJ7fuuZfV8RhzIxOv06ruboLR3gxkF2Zm1CkhiAUvqmLcM9yrJgnfB8fF6f7BWV+bCA89GtFfgD50jEu2jEltgXc0gu1jW/oOjQ8aBBWSA+wNQT7L+FuTHMWX5PSXXXpJAaNKd7Ta/FD2ERs+tc+3rM8twKqywVNH18NyvUB5AdzPveFm9g2xfMfHWGIychWAOK04Y2gpFiuxWKFprN3bUOdFjVhsi6iOR/jKeFXkPJYUYuauNSAuDMhvY2ZSnAIm5/zRlOfNcgm0594acqbiCokDTmaGAR5VtE/qF/sgGOArAOAryP0x/PGglcnzmMQ7WQaAkoyNoPcEy3/DcvRkrxRzFFl8JNWjZ980i3L3PMRBgR+NgJpsG6pMIxs7pZqtot24ko57RwaAnG3lIsuCUsXSFp2h9kePAnncROgWSTuq0NRmmIELmb4juEM12L6pdK2w/M8OMh39ggLu3YfaJ4m//8+WoyfQM0Lv9tTYZQnV85kD0LmH0jnXMwH+cxt9ZVb8qgtRA6zsbA3gXwUIATVBaWaUmdpbOfmP9h1X9fPe4T1ZqymkTG/QlvvWb8c/33X31L0D09Ny5smAMZ3iSpxDU7K1zOG8XO6Dyj22oV6dKOjf7pR2kD3kfLR2RWd3ya2RkVCGSRRGQQhVEYthLF7coz189887PPXw8rTwnzg73qeOqG/94UxTutnDgrIDSQi0vHNGHNj4UMpXjvrQJ0jLdpZsXKx0BL0BDGl3LZRPHtIXlC9bEW6OPZtqsVZITOBXnCjfltXS0sJiqiJYUz5V3VERlb0HVd9XgPhxtGIXxZZF42K+FLOCBFG3fw7zGncgZYGCyBGuPHKAC5lcScDZiqfAzpYdnvpjxV4bQ3CR0GuBPMlqw4dCRSqRPcvARs3gHVGcGhx9Sgib5yXhCS6jlgNkkKHJQvtJuu4OQzzSHRvRvaOk+zUlzN9M145wHUj+0YDw3PoQryDyvJ7PUTPW/EgMrgReT72WUEDt00AfP3qRU6CqY+qBf1Qf4g7ijtel5732fAoPBOkimA84llJ/l7zsTQEYcbmmXgcSM8TNjhFXWL2FP1Xfwhh88bXuiRxqHbJouZrsbT7mlkuIZJgZ2/9Q2G/QqajyBVBQBlKSe/uNhkNAYmZwMeIdqWLDLi6z79JHHTyN0hX6aTCip5NyndV4Ji1ppDfjzKHyhxe4U8Kkk2Pl2x1kY/ppfLowC/QgVZzvKqmKzvmTBCM6Lr5Pn7becaEuPcdj9mjxoEJd65Uh/q6BFNK3RFCoUZiuwcNSEJoHYgu/s1kaMvOEdTmRqgefI/vTlHszP+k2ku4caazmjzw2sCWeOpJKrDKa4e6dyLOhSYtX7FMocgfFhks5sg6ffSgG9YWQJrtiFqj6jQ8aBBaCA+wND060a2UZQKJ2PeQB5kkmTz81fUpLeI5C6cWyiA1vpuyeY6jfQaXkrKrDihtkX8i7gz5dx2/LmmcEWPPoERf1tXVZ+FSN6duRwyw63hncFOtT3/qZLXj0CoMDW6lkPoBaNErBdgBhhtLMUN3nYz6QJa17vsTUFOeNVJkXBpYay7WPn/OJBEx86eE17YfrhByKxMthrwBQgYffN+fijIzQiMK2aq3NWOPkCg58w0D/AD6IL+RTgfbQEqmipe3lEI4Y+rZ10aYOHxGJw1/3oF97VaT3i1cK69Z039Iu8XGzjeb3nF+Pu+IemudFAWWnthOECeNuxioxIvK3ywrjgek/szQ89MWOp0jt1UgrNtdEiID7M0ZoHp8eqb8oqNZoZPtaEiFp/dqQrNvAiGtQ/KC3EIwvX/a1z1L9LFYGyMPDR4VBQQ/kRzE7JuScRFrKgqAD9/q3a+ZD+TdBL7AiXh/08d6h/oWpUGNG9cLoSCtF93d0HjnbkX5msCim/hPNYglnpbO60VvArEoqhgCaJ4teQXWbXRqOViYrkU8YAuQAE6Nuo/fS8cI/BFqn4rTMdlrzuZ/S57mTlI8m3XRHTuiY7fVcR+nUneZivsgX/vAghPZoFjLgvcWobfhf1gNUcUSzRBhgDzO2bQ1M50D14UnsjurNJxZUjL/W3yZenHBvMkN/R3FSsdXSlx1SVNaoENP0uvu26TJPk9jan/qxZqZHPfP4rNYiLc78xhz4Muv0DZn4BktawhsU34v0eZibkDAxjkn8FOVvhv5jbE60XdpN0A36q0Xady9l0mC9ijTT6JBM8GtaXz/X41gYZN0V95DTpqQ9Il87evGC24sv1/HEYWo+MIy4dRypp3Y/UXRQ3xh+N/o3+b1HaWC9suUagWCZqhW65Q08uHaxtJyNek7I5X+24X72yDyvFuoYBsflsn1fuEmaQvJXMWttqWDVljTFpu2WrDC7FdS9cMZFeYzgY+2DNtFIixw1VLOh1EjIrb5CM37bUMmgBbYAP6Eeh3w7IeWCWswSmO7vVDioKLoNXEEVkcecax/nFx6hd91yRHc9glKRN4U7mbZawFlaiUcM2vKkslQmQ+QQcNG3NkzETf/HFDL3rQYIc2+NDAzBoQXVlzNDDapcaMT1TBtj/J9PpYBQ4BXS1qGiWMm9XIIqm334eiLp/E8+02SoaMD8SgKs1lSOtMRLJrwia0NrH3kDTjbTg1fUB+ZBzF8rD0ei0hXszKUws+46Cj4Kxak3+jwsHUrAZAVxQTQIA7xXEwb6jQ8aBBdyA+wNPtSoFHwH4uz4ExDu3MVrURq7j6bpkhPdbsTMVTThCH5ziWi6Z+Q0Lta9D7EAqa32JBK/CzqZOfXFnezE6LTRwf6BTxxf4r5wOOsbUjApOwy3hiEW7cQDuIw5g7iNzbLF2emucQ8v54nePUWCdbrtJrlBMGj4aksuR5z3Ia2wNX1g6K3TpkZ+U+81KkZNizrXWEkd5tNviJpRPySsHnkPXGmZ,
,,,,,,,,,,,,,,,,
KKBMY3/YUuPCyP3hFX9n2r1RfHpeeS+64CjSDEw31XpCN6d3Cnfsa5yRlwpBvtZzOqiHPohi9OW1y04A1e8dJBxwujWWUDilsmDls0XgNIyYpbJ4TSdS8QyukJBPE3EPvM9JDqwoyI/jywmpupgjk62XYpjV05UhbmZJdXEbX4qL5+OCcWhDlv9NiEFEPi33zeCcoasrYN+dxIukxFJWHLxfeBCxZ80Vp/Vqd51UV6eTzSXKSUh9SEKisnZJ969p9xZ3gwVv1SxhSG5qCQisLky6GiRlPbKtO0IV2P5RI+A60svkGpv2Qb6e9biFcZJwReEMToVhg3LG4Dfi+zG2RdY9Iiz5GlpB+BtPwGX13S6qZreeHq6w9WxaG9fEGkCJMNgsR4QmhD3OI49oWIrVmyW2m4RqZtkoBRbxyZ8uIkg+PlOAjZWKXCjY/CfCgXkfwYCX/Kv+fAbMIAoixsPgypFde2TgItdi9+87FdA1ah4YdOkCmp/JYnae3HDZSgqKXNLF0U3KOR8Hl0U80ZLPQ1zrbmDLIWQvF5KPSYKqRTgpjcs9HwYllTXA9vvigmbsgaGsKddp914q5x6Y//MtBphBHcTiE9u3VtE3pSxl9MfvMOlKTUHCoxL/zTxLUHf1Zg2iwgEd2fy49nKNEGI2zRg2hdO+xNDJvJPThSKR60PQOJdElo8+Nd9wzgHzrJrPs+bhoL/d+e0Z7mCjeW7ymmFWAacSWpclKs2ZQpe4qLkj2J2FPREvINoyLKV5F/OlmNmbRfqy4I9nvcZhY6k6EVifoYUf2KtBzIciFpbDvZWgtUPpWTj32Ec4vbGK1ALxdBHocHdMAciDGvES4tLaHPkwuIUjVM74GLAl9n6OBihgD2YZDB5T+NzgKhy77RsaBSfYj2grhQFYvX4xJxHJaIiyEasRpW0Hw7HH0gkKT9I3wUQqadw+XVjIXvPigllcQ/VCpdtlo7b2tsRWdHuj3DzAv4IhUVgrNUpofHzMSeTulJ4zGaW3fD5Y2QPa/mfayZdnYeLYV48/OMkNKj4sv7nA+B2/KVQLzPAt2cejQ8aBBhiA+wNRh1pkRvF6gOX5sJxxunt1AoXP4pDwoQ453XXoo/nVQXG6WsvJxp64Hc7+gbop83LJLfMLHRDipg2ciAoZ1LKmaj6dOlXsmEsdpvcU/tTp44n2+X5d/fchnCooorcbD5u0u4JMkUGfjSeu7Fwbz41N6c7tvqc6ZgTzKJNITHHS5GW8hZKa0xiCXJCfCHeRpkUO46XrGv0UG88yGgBvXvrOPou9SP+dCtEiA+aVijX8vPOJvX5NXpBLhmcv8ziyVwEakNZF+dnQQ8wQfaHeV71TBsK0aIOTHKszKVcy6edSr2EYQZfXW+aZktYggkQEV2P51zof1ptKkgup/cLTk/FzTtylRkj4J+ZmzNzd9srS8S8cJla+jhyIYC9rqM45U474pnHJvL0WfIxCFxH04xtqcebPRKY8fZxwNJiCGcX7ZFKAPsTURvqK3LPONBXQ2nZPO08LP29YzUEiTVoqR54EWdb4EY/T0H1kdDN5gFlzOUNVGm9n0VaqMgpO5I0y/C6IgC+FHtFgydUilPRw/URcgJ8ly8V7Tj+nw9Qr02R0QsKlwT1sFkR9yq3zyRHbvkM1r3jTuSVGu3dWUTWWCh8MhrWO3GuDj6ZDnb+z5pP9yBbKOK8yg66laSVNbfe5am/PackGAaRvjzblpPJee9yhxW8gwiNukZrKWBl5QWPYngwE1QlrlnmPiVi51pmvxB2MrcXMaxRXLku7fJeUDsY2uyn2SzMm3YTO04cBTjshbUMfLcSnOb98ZNGlRQ7ebi92cNE/YyfZjoqGsUiMLP7/jmSkJ+JZ2wQXYsxksBvJIbGvvejNlkSTOyPqagFVPF+7XsrwMIiQzSw2An3BdrIZUGifgGiUdHxM91oH5VCJYD81r5EAVn8K7bcdDwx3B9G+ElcL5P06OBlLN07j3j9hPI+sRRkvNa1B0N22OorUN3FOTzYsIjmt6vKTnu23pgRYWRAJxr5+dJsIwbsyxPizJGyKfn/AIxyKeHfoeVQ+XBTurl810XfvF6lADIqSz2JTlLCniA3Pdtr0mmNV3Gqq62aGZJ5rSGkf0laoTKGClizGNPmD+L1klTCSuaANKfg7vmgEgkcs0+MqpOTBFBOj/2CXOZPd3NJ4NEZcETm80vHe3TLfYBh0UwIjk9tiYOb4KNgX+y3kK3Ou8f8EoLU3LVgn0xhKPuHfN4W5IScig7T7qHx5U9ogxLmlKjn6fHTso73DXhyyLnHB9i+K29gXtdUrKHYW+Xd/Q3uJ5N5wNbNdMVVaiJetTSeCerLNvtqjQ8aBBlSA+wNRg9SeWXCh00TgKQU9QqjlfPvBQ7rozIF1YePp3yQD3pHyvh0DZkZzJyeyFYFDer/wfQQscswG6JALTzlr1nkkSQUHEgUi+ZoeeeYxxDusz3pYb7Ge4CJ2gtMDCjR7CHlo6lBJNTOHUK89XrmKvrxRKbcXx5egpPExPWdcxVIqsNeX/l5eeaI11fAKwGgmS5Q6XsWxL2I9o00sPvoplQ5bdrP/dZlLXhQE2Lwb3pxyTEMI62xNVgplGuuwRD/mkyON5bDblACVA9bI4NECRH4eXAAQQoHc4lE4Aa/FrSk8QrxVtgN0FUOuhFyyNcUEmj6pPPZ88TjH6C1SvechQQ3lt0YUTCjZW8vxy7ddJXrDWfOwUip4QboYbQmr7wJ5zxvahzvQCJSRiv5eR2W4VcTdPxYqsOaLDD48gI15U3gO9lKHyNfapz3Q5N7AN1QZv+4IEsr1ySeQy58H3SKne0ocY2cia6vXZq4B08FHPsliwMWn0i5hduKK4Q+SAek+0EDXdCuwQZN+yl1f2PhX+DCmNz/VorvjTICJFmQEi9q9E6h1yhZIOyBQC3nWt1P12Dnpk0jUVlNEyXxvPwqfEVOu4N2+0KcoR9vSbW2BC2u4kMGHQfgWxfCwoY2WfoWf54JYLhPYNyD3bQp4+RviGSyjBS53DaFFCbDR80QnzRLkL6xpna394gCZviWvIkeE6rzumi5udmdpTAffzja6c6L+9prrIODydN1/6IcRE8srPfWVcfvvxom5wG4rXbNHfn21gCgxOeCXYBZT+iA+hc2CmqYAi/XKjLOUcwACUibCf8kglOvBf6pu8nPXlUWwHIhdqK/dZayQmHtN8Ob2JvjDUI3Ag0iq7pPjoOckhj0H3vZawVg0mhRdzmjPEZ4/0uPg0dfP3z3luhpo20rol5wFe72e7vrriz4CRPa5IuDGp4Cmp7ZZ9MHH+3JxNYHriu5la9CUshvFS4jU+RmQ+bDsvlKoTO4BIJNn5Pz6L+FWX9D38KqLwsBnDL6ma/jx8MQXY2ur3RdtEoOnzCH1rzJGJk283v+sZoH6uBZc+SbsXn3fsN8hxqL1dP1aSC5RibSMRjaf1HK/Hz+9D7R20rOyCjxpzVcGfCt8bOOCorXCi34fa0K8uiedWarocWkoZIYnQbDZk3sNWlU49kAdc414hnqpGfHWFWVIJN3V7Wd8zUIbhekRt7G8cAXr5/zxFMiuGsRHzUM9WnNGmp0dPxo5dZVtlNrAXB+flMxHN1aHHjOd2DCN/5NPTU5ChGbUrtOjQ8aBBpCA+wNPucClMrUO0pykoSBpFgSFbxYxy/2pilJ9UZPUn/gJWovFn9q6ip8e8dBXWv7fAKjiQHnFOy/u5vEkwubLtYeRpIYu0NEOxK4GyT36NKg4zjE4o0MX5ebyj36TbcyjNPBl8haRr5dyo61lgZyoAl8JB6rWvG8gimCMAM8mX3BECj8ASNaFXCF6ZVd5L8C0UkiSzBGzm3610fbLqzjvdLkhTzvgs5r4VOBSXxICASPZRfESrObCXWGNN12vToEEmxN2rY48Oh6qxah8WAuBdJR2PMnbtVRIYipa44YhGl4Of3sEzqF2LOSWp/IcqTeNemkadQS62Vfk2EhFannW1lXypvOeAO2Bgo4qjZkcmzy1YbYNL8fTB3rtdWzd3044T4YfK0JiLWQwT/WsxWshqJ7QaUlcSdwvZajtCBWe92OHhlJWX4eoh3+mJR1Sbp736WERGAtQ60IW/06Vhm3yO/tpdtokuyJCAS1JshSlHB5lN2jqbCDmtzElhYSi72K0xqv90zkB3OjyU78xt4AFUO8S8y3K1HLj/aKL10NzoLzmvERc9NiXgA22hgUywAWwMdRKVAOlfR3rghD75lYFvH2XrwxH9wbRBi6ZyQDErD3ENFPFpDHYhSY1aLfT+NqHRdMnt82iggcYz3uknp/25Z6TfPRMfeogwZYm3ST7Slwrg44dtxjebghgXrAtHxcZ0XzY+RuWnNsxwW8OWq2GNsABZYN8MnyFBVto+B63/dv95C2+nxW0sVEf2B9q7bHkgfMFk0F48Pq84STULOIpMCR6LbzVRhnQZL+TnH9IWu7+2V3CJkp3F8Ba6BQWhgFTXxCaMkfMLw3kzEjZRNnYbThhQDfAcBtjx/BIdm9DnthHDxnZcODg7Wx+Sriy+Skl49k6o8hZ0hgax/kbRf5DInsrcIbA38dK+RTe8nnsCkpaCyUKhSN7xYEFVY8JCR7gyQlN6cy8PNelFOvt7E9SI8x8Y0u49+6lxNsNLPYPWXi5qxcrTHUMQ/keS+vt3VCgFbGfF+x2ePwfQykofhXHu6nCT84PmQMXA8DA0Ly8ah3lkZ1X49L/x6GDJxDUXVG7LEmsBDdGWoiErwOzu1W3WkKxMvSLn0/xmpfdQPH6K6km2Vux75mkt/B68eNsxmapWP3xncIRhOKzdFVhdp28m+Yi4DfJ53U+3sIVUFMzMlpKrYe9EGrf5/B9NLO1uvUqZlc5FEmXCVzrqopxDCL98LCLdQQWtifnbwFO75M1/WpQEeDnpfKHu509HZnzbjDne9KjQ8aBBsyA+wNT6CJUwtwxFf3CxLWppUypY8p7RZvl0Irg6ko4uuaGXYTAybBP79IiV+0n9CWqiuXGlmotKUQtYwvKO111l0OSRY/lO1UOjjnYgDoMo94LGRJyERU74PWm2IKqg2GLmx2sPKcFHovoI1U9VgGgidwOqzv5umop8c62QJn46kcU194YKw22UQWcBr0H+7ggp5rAg47CQcmxpBdLvjY3WZe3wTnbXlzh7HH7mKfkzTKQJ9TMMgkGG7n/v/uJA6I2ADqOjTg785TiHFXH7MAmB5RSs0YabGmKKndtRABbRgFyXN2LNrLLGQQK7IY8ME4NOp+fmJRPnPRHn1sX0ELnqWI9B+ocr8c4BrJUO03GT23riuxgEJOukcvcC2zEMmlGm2n2tGPbXN09PevhUJdI9CABHMkRkDFE2L5+aIWq5lVQbVsTlo5GxFt/WTrxN9arzYFDsgWkNqDVZlmurhARMF+tjAjpi5j18dlgngIbNTUppa7O+RBB47+g0kH2eZcbqGOZF7vePbCxOCPzIgAsKo4W6Ec+7FaJl0yBOSmZrd+KaiNGNp7lSNKFy76DTFe9U4lJz43FOT6CTCUFE08RxH8XhoSOcnv/fuERh7oKSYTCBl34vsx/OEVYoB9auN/OTJgkQT4Dfx7ALLHvdTgLsOYgL0F6qiWA2S+QXyGCBpB28Y5+hjqNWGaqwovIOEGA9dXRxBL50P8dr/KdggTW95M+WIPOhEqj69lwavxCyFFg0/tt27vMXP8Aw1xitYCCkF0sqiiLwOvrcp6R+AQq9XEboLKx8j1KM7te8SHNwK52cNNMh+1Ve3Y/Q89G7A28JbRYugpcpi57PBpVbTlO4HCbWuneeIHF/b7SPMr7wK7LOCZzzbyUDU9ga+XG4qcWRt8Drt5IEiNtf28X1fzzBX/LOfH0bxrR0eA72NjocNT/I+ju41JNxeSYwMjB4qV298Xqn1JCNgcePzz+VyLa39R51WIbz3xRE5+Noq+gWOYV2CdpDEAM2I+5Ln0BE5QWjhEaanqFqqwmAHWD1fE5zC0esjuvZU61qp+xL0J1iIL+J5WLCkkdsWiMyJzRXEFSnbklvWWH1M86enS2pn6Us84Y9nWG55MgwWdG+PPn0Fpjs3hRbdtWInjOMMWhq+fsnGxtYZff/u539LiuZFJeXuTQmiwlq9c4iiCWMUQJPYaIKguqI1rcq9JYX+voHwxzboEhzlNksF5nLDucVNvTwAcuK8uH9TsmVJdM94Jx2mLhHu/82cSMjea8LKSGE++PhwOjQ8aBBwiA+wNAO92YF3E5vO7t+UdYGI8OGDv6bWAhZ+ZGgvJqAHt2F52rEAC6V66HcgMOuMrLJVDlu74pUZoX43wxFTNHk2VBnJfdDaM8MswXwvqoCKd1IAGrbLj50GY1eJo8p71uWQUC1ds4FzavgvhN89kWXGIrx7fw3s0oipCFkhMVchUX3ymyoX/FgaNOOpV0Cvt82e3YBTiqLw0yyDyOVbJtlnMh8whaTR4/An2+PSA48pLa759bg8KPoq+PO3vVc++lcWbXW+YpZtyggbQtb0jME0egSlda7FqAhd5ZnLe29hJAjQT4jQOtSHkl9SY7Z1PYAmsUC2v6Ken5pSH7++6ooEcza1gx8OGE5e6FhaXN+uFh4Oyy/JRt7EzDoWb9Xokd0WWAmRmHNuPkid4kfkc39wSgwLkQhwty6a1QeigvizyFAVndOeDiGaECw8JenrXPaeSKhy6JE+nkngR1SQ/blq8iaffNcNkSnBuzgV3/wnz9DvLYwX9pbE6hWbh8LzHVO+AOClkeRb9VaP6yJvM+uamFu4vx4o5jQUTVFp9RDBw0VLuO3VZJts1ZlNE4mjf/aq+cTt045dYHpVf8jixj/ZUwxydVicWOfLWKLZFArpZHYuclgf4se1s1z4fSb7/gZpS9gSPAAy8tGe9Aw3cv8yMZRX/ebgW3LNJkQsFVqZi7gEXmCNF7olg7voat+W4xGgYGXqhXVeX23+uxWSL7E/RhanYxmsgBsPTtOnQMJVYnO/tanLlk3bOMI6iBahIDyQcClR3AYUsTc3ZqLIMVy549544ifRdhPkXzdfLBXR4OJ+N1qWW46cf2EYiJfB68H1OGYtM0DRnuTY+cYDEGl5I5RDfsUIN47LzgOYMnjU1fCD/fsWK3G0HOdG/uuvZ5zOJNgFZeKXNtWXZRGPSF8KJODx4a9tSyUK8zpolj1RI5J/g3c76rCh9ABvWc2D43rlOrZBGHq/SyT4k4TEaFEX9pIpKAKXwSXpI1lcSYM8QTtMWZ3YPJns9crS1l60UYUUEgjkTgNe215g0m4YGMRw/VCiwAOwFOqAiNMJT9sSIfYBnlN0CcV2HH6EzgWzO9LAnjqPqLaf4gvfdzw+Ui7tKdiX6R3ifbXD/RPUlRBAea2JJtyx8Q7OP6ti1+iMZlVBsOxqrno2H8NUCy6bhjIwqOBrKrlIFykfBObbUk8HAEn5EBiZwR8zxOY+E3CTqISPOFYyl5Fc/VIQx7WVs+5J+mWjwVNqTtNYGBKLdGF1mpnGUfsPlNrQzMDDJVuZ7pJDqjQ8aBB0SA+wNZ9yw5HIdGv+uUhQH17VJBEoEhGfsrsRBuq9V8+bVF5VpU7AIrfEWAW0bPBHskXg/crykYej4vVHmc7soVJ3CBI5j/L+dQPbbw9GvN2SU6GnOk0rWyf0oXjYPMDeoaQQUk2BgNENsn02LVz/1sZ2tDA7MzKejneR2QF+PnDxqDGcqQuCSdaeiw20sAMwDEGDEziNhVnQfi5mG0voV9FLxl/T9jK/MhmkLJ8qwQktXa1CgWs1rTGGcdnAwQ+zBrv82zzzgENlTTGRBoOv7zeIpRKCc0S6e4ZZLdrYxqsuyWqqT2wDu8xOAESehvVuXJMe0pEAQoXyFdUWGMu2k9bZ4T8n6X0naXKOEBwkcX7y/ccAK2eVBrQalecx9JxFw36mtGzqQyyG/7T+z2WR+zc4DsO1bObqgWPCsLdlOdD5+8fVmC0SdiyjmzxRpHX3AmNv7kkbi+vSCeNvf66jTPGNm8p8XsOxobgimOLxktlJeJ5UdYgHsOBkIvK1J5Xq2nQqZ9t0U148yVPmObT9+R6nSGsBU71FPd+iMBBQntOV3T960Tdwfy5nzU/Jb3hVEIcH5zDiQjXZFKC6kwpK6KC2xeqPKNECXl+Kang5jRHeaqc2RYsOZhjcVrIriyZJ7MMTD+dan2Qbt7xpMHNEXjlP19+z9ZEwJf05WJBTFoUZ187BF5kKUopvCou0doO3fDp4rDNnBI2r1xjWltcb/VCavnvXbSX+FFe8q+k/Edy4wJifhHk5mIibN6uozZAKzDnAD3FaEZuBaLsEMF7mrDwQccDSjUeobXz3qa1HdRnwUtXKTMKPk655JT0jgWDRzTf3oum0TsaW4/v3yhU+NkzYoRUj0a+ELOSqhrTZHFSBbDVDcWD6fyHZUiZkHOBrlfHmXgJLmK8HZoDi5kgTNwMaeY7zJrXCW83eKAmb/NMvrtjQbRHqJYt8smrrNf+NaVclv3p3MOrwg2Xp6F38jcLwMnbwhMbYUZ8Td9Lw5FonVGxjTN+3WtMAT0m8VuGwcNdYUP21ehnmtOCLYp9B86x5cjZGwBTGJJtcWF2PrnRIGrCSIGUP3oULr1djMkqxlrcnSzucB4sE7pMinL6ZvatuUXQORlEfInU3unh3Nqy+0l6UCtHNxJpe6Un8KcSmg/ze6RdPwrBJZMrjQPk7xHMr6DDF2l1jjFYuQd/QxJa4Z5EeWald3wV5L/RY9oJq5KM0aIir4DtEREf0L8Z8xXXiJLhY5ewRKaVH/UASB2/AzcX5hUtwBb9AhJ6hSNj9Z5Ov2jQ8aBB4CA+wNQFh9Hyw6pCVbFnZ5uBt8lr2wZRdtAOm/T52Rdh7nfs9iLQC0nmnxsvUeEdcyrKRlYSxgP5jOoaKaN5RLrsPrSSZxCTSAtbN1fFHqDA1m1YPeeuhhYuueWy3WD2oZ+pH1phn6PhyIbM0PXsyisnZ9VcFPnzV/a3cWqMtKTlm2TR3YOPumRYc3BSJcIKOrrlOjhshTWTBIJCHCb6ylTJoXoiBfUnQV/eVPlQJwRynTFMrZEDCAboRPLJBHJu7cLHCZLD9NfGVKbWs6sfuSJYJTZ5MKB4ixX8HSkFamLRKlmub/AiQblREacI2EKYGajtWucSIrNGQy5nNGu+2IxEyGnGvKhjosDe79LrRErrayQgLUvou/DlaSqq6ZvlPCxFEDz3/Q/uPzlVBfuzkoaKKr/aOWvdYuvmz5OaEA8nGXuklB0cBtrC7ciBOD9QwH2o8hRLYPOOw76U+4xX5wDlbvJOP0X7Z2wfmHHwZGbGL6Vck4MLASynftzympNDEnmfgyqsnL0cGXfcvmyG1bgJvi+5znUzTdvpFlRCLxYXU1rT0Mx+UiPIhhYROEdvUZU3OzCP8cDVLsiyPHGk/anCP7PwsE/zouCuq3f6n8uucm1Xjnz7e97fAtp8zwqGhRL36Dr3Xq9+3GYa5He8upizi20vvPfyJtKCSGqwXMFJgX/uEeXBfn8AytKkbWzsyBkzHEWgNJcVsCBN4w1Wa1ve0AOCag19X89pxdG8ayFFtbQp0J5A8V/W1CkR5QXr42yMlcTSUJt4IU13+lE6HLlb+++Pe0pjQtlhQfXbyhxTqaMPQGe/SK+PUBPpBmnFfnpOwbYHHo6KrbormGAFZtsXAmmUAgX2beBqEqwN2snePF5fj1EfaEAh+suD1Fc4QFTECwJ2yYOrAPqwJMYznGvdq+l/WOCgVRdRMt2l0PMphuSYuyPoCdnTOte6OL2uo1yjDNRxehtttJB2o+06/4FFlA7O/v0xcKLUChb7f8ofoZOcqGPC4FqAUJSCT9uIxwq6OaznClxfNHopYWHgV7+EaBQJeEmCx9zrN62J5WYkqWPMCOJ5cxAwsCM1hq+p0sT49cAMuGMrIgHs6xO66s8febiVVL0oMt8Ehebkoi7E1Nk/smVP80PLkM8j8/3Rt7StpeR/KIL39ManpTUrwRzFEdWUjIMDMMl5Cc0ATrwfBdWmxrhYsykhBHgGIlsFzSLKOqDIgtvl94TP1eCWBy8CboEsjBBzIeltwHkHsSo0eGBF1f/mdmRBgw9PJrfugt8RI2jQ8aBB7yA+wNT6LlmIiS3/3o1ri+9niPNlorQxL1bkmJY4NkhdwkNG3hpTbssaNCeti/Iy53ijbjaf3P6XpAk/jwQquRVmNs5DVhniLjvcver6Bw8ZMTfQk8com+1Kkx2eUh0x4iWHcavHM2q00ZggRDeIfyPtXTjGk5pyTPuItY2W5gAeyFexUKJ91Crc2te+zJU8Vbsxq8Vib7oC03QzksEST27Jff/JyltRbFexqDDgGeGmkjwnKzIuSsY9kUKod/p2phgPNStcrTHPft54ikNlURW9bDiRzsuMemnl3zop6ReX9hQEsWtT2DjunKaiUif+dIAe1PhT5n6/pN6Jt2PAQBLIFY1/1GMyd7kwrML16DsC+ywB1k8/OjpkhsNhsBYh02byWmGCSA9P5/PsURAJXq7aVLlEF/CPsgcFboqMvHNmyk9mVq3h088fozeYi/9EOtxv/U+dEQvkb7EEK6BdhsyoPuqkSBS2KddmS0Y4wWFhlZznx9eHR6W0dCqd2BIiw3diQw6jbuOar+P4YbHNPmcSmuyJMD20tgqe9qSxts9oURCZp8W+Q8skZiE8rwlsiGAK4YKgnOGMjnzFV+nbio/gw6hKY/I1+imcQwkuUdORfIJeR1dA6Tnu+zWiI9H2lfzz9J+5QhcL3KOkCQslG1slUctVDASIL67rGXJj24RPRyr6+5+gxKsaGERWLdIFcOVoClYs0opvP5XLqNPNLHCkYQ/WOMuHOeaiMNUueEbbpp43uyL9FrP0u13TVwiuSzELUGbvWpl8mSfr5nitOdD2K57xxfVLj6LAqUpmKL8MrWVfJsMSMXizJsrL9NhWwtLdSR5rEOnE8D/Oy0qPk3jktitUkTXhEY4TGCArvjcAAIRlAUo8UPyxZXKeS7Cp1SFbho3AE0LLfGz4lrYpo261RGQqvmtt1DxUr4NVv2P80xvNJzoapAw3Qz2oT7yQlx4QPN9MY9dVbo4QfQc+19O0ykWT5+XVTUNdRAdvSnZAu78L9Fes6dMX88Bo6d9UqkFJL6sPti0UqoIJEJc9Weh2bsvBQFOFtwZMvp/lxi9rsPcOm+c7APqpPIw/u0Uijq/SiKnCpNEkQzasXOkffRpCN5zY9IV8HP5N7Fhcx4TsSoPSLcdRzmCCZstJYnTsaYzu5xYEzPtpPariuA+cG/lLafKx8+yPLPzZZtCkk7rWCfkwGhZM6wyuZrgcg2AMVzw9NgIydkLMVb8f9Fi27+F1UOSGmsTNtBsdnsPU91wLke5FYjoDPn+3zFOLX0gNgz9NBejQ8aBB/iA+wNPpHcC3+Hm6rPnV6RS242Dm6+BRh4yjItOa61f+qy0nrGxTOqNxPLh+6neJ6rA/Uhl+0QYJwGo7YlKw+RaI0JeGRHjopIfyv2m903bZhqaMyo799GHpD9VuwisrThofr4F7LwHGXGo3Mi9ipIglXubHxjN4PbF3k+AZteWicNmz/G/M6qm4Q2fsMXsdgFu8G8h69O2Rm90pjKxGzfYmvEhupoNfgOckybeHlt1WY/G70sLzq1qpUxblUCsGkHq+vwW9QvYcsUV1VN1B2i3065WsDaZ1TuTqImAnJcR8vg5VV18lOtRgBHNlnlmMotXFHsdNmtISFexB6RDIAiUf6JUxYJdOissRVv1qJeE+QRXIivXt3PFxWvMJ1JfA+CvzX+2/otOznkCyk7SksjL/uVV7UBAzz0XHc9PtGZRdMobUU/kLu2q0g3x7CfMKsqsMAhkBxFOTMkc4hhFxyXPfdx3Gqc/TpRwUCEtCeI84I3OzUosZ1ANTgcjYYsIJrenBML8bGZpKeNJmzVktAad8J0EMPbHestBl4DaaYhs+axAAeIHy6Vesgxsti8j0vzc3j84FRKOwh8WPzdVs//n02m5NxkjyuhqhF1fK6yb1BfgP0hg8rnTlPZzWjHufCrzNOIA+qbK+BG8AoZ+8qx2O6HPjUIHeItoVAIkR4ES38rU1CCBytTVUqT2fU6tV8lpToaahFSZtTZnP9+WFIKOZHjhnFvCavqzL3sM7Z4tx0Gt4Ka09+Sb7mSVUDId5oqO0QZtApRWxSPTQWMtxnI4Wylu30w6/SgEh0MF4e/JK5aGgQf+tMCaDR9O/si1Dwi1MYf8YYOelkFPvTpJJB04tgoPWrN6bCCKbvInuc+eBhAg2Cxp6rjQuk3m4x6t0XGsLTzZCqQKOcEPdcYMfTonzsC/JGEn7gRaq5TTswoYxALyvagb9ebp4nR3k92kg3psN4JlEM/usBt5NBvAyCmHRup9mt6sDR8E5FPPHUxeNSXeQNt5oeJ5J0Z3XIBL7f1R6PxGviDBT1P7+N+dNwIi8CuAYy+l44y+iXWkwC6BHgVfGruj098ZcMQnDt/Azc2z4kZne/ukSigIeD2iUfy3/j3BypWylmB4kLtUAaHpnI7EYrR0MC54eY4hjbRe2U0zcSTPR45puT2q5oq/lMrzx5yK6BqnXJClu9LqX1zGNP7QVar50y5Mxx9hRsiING359kaIyMZf27sFhrq/0K9e9eVhafzfNwCoPB2fTtLNg4jiPxkBynXo95hNLyigGFV8AkejQ8aBCDSA+wNQsCyBaqsbXq4hA0IqS50y+pQkukuqZjR2HNTG52rY2yrXzbHroxEEdferInLm4K94zquEVtDlrLMw0IqFM5dF1l+JoXYRUmW7su6WSqIOHpgx6CnwZbzdON6FRLY6UBo2Gfy3rx1QzMxIlwbYLyP0xwTq8p70llTwNJEMnZjnQRjLld34K3i5/q3hWEqLuNe4cPFzpq0CqeSvWAU0fJ1g46MSS+jfF748bTNF+0g0BRGBms74YqDLBRvm7TJ5RdiAbw0MQm4erv/O99Hq1MrsD2gu5SdLL4QynpfczlN3zrs8OeEFKaOKCEPvTwpgYlaqLaGBcRgQpV2PhHosVS2tTG7RGRWSuw4Q6/Zp/BF9M100ISxUFAcVmjxf21AxhnJomHyqhxXDE8rIuJLeJ6QwGQT5QAN7u71OXSFDLagVzlFKSu04qdtwPfDUD7TOR3GY+1kVkLycIQTmVzcn14wBLaAakxxpcobKrlFCQpM25xV+y0cMVZjILQh72oBO2YMcIUUg/BIZf6/7uEmdBvTF/56R0qXePxrYJ2IW/o3VkL6cC8FYpmy7NEbzuFBwjPHVCYeJOpUO0ki+szGEywFygunD5GzuKJWzFVjoaQKVM0gFjEdE1rMue5TmmcdRWybIqngyq6DnRjoj1MMbf6h/fadnqzZAeQPQpbaSvm9vFZ3LyLQVsucIfV53qA6XKCTIpyshFwBDYjIlw5qWzOYuwJVA8MHrXn29nD4M87c/zLJK0X7WxYWJDTTLhsHU40WkdZ3JWUyj0frkaQ47HgvRzRRg0Ek90LMX/K4gIzyO5MB9tYHhLVKDlSJwyD1tx9drUaBux3uCrDdrP7CrkIzMWfZwKCdKQ/ahHjY07bPzEJmvaMUJn8yjDKDzBjTbajHlLi4LNTU6sP1pOpCEbDrMlW1hbQzzjnk1zQaQsyvsmSrIJUKx8aDPTDVTQKbKPsBKmXqOs1tm5bMn+IEOCLml0yC4Yior/BjY9QFgxgwdqC37vlq3YfxaJaVmp+ulF3JZ3NXdODx99YjcBJjYM0Fzb2D6vjQKhPybFKuNKW8bahTsWtfhhGnoNX8WZd1mVwSw9w5eO4tRM+eRQEZSpK9jgzDq0NEpazEbPHj1otOKUUB6YEG1tujs5PbmkHleotAzRaumcry3+efsQ7JKxwS8IYgIo5EW/MIZe0U/arSaPByM56Njx0oW6hnnO4yDYhOlwchonzJ5+epMdWlKbFVDrb9o5+3U4LRMfb0RBbSvmB4n9jvHSSs+H5XQUq4xnEyjQ8aBCHCA+wNEN+9z3V42ui7vHpiLlon1AFxXfjP3z295wPhlgeRq0D+VLg7uvF5ZYUJ+tGPoMEH94VBU30xFdsbm7NTDqsfH7hc8CzwzGfFgppni4Fu6ry4766da7QaPCxxPdwwZa1SNWWpEPpiZFxM4ab5nxce/ham1c4MLnsNAwYUyuoffz8WmLWnwKeGKb8WVJzZx7oI86mB5uVV0fO44/XXI4QPuk9tgpB2HM3WUxrN3aY3ouJt/XT0QvtYpIEI3iZHMCTPVx0Qx38xiM8EG9rlHiT13/zsLYRr1swnI7I8qiYaVxQCSgSAs+x6pZLt8ayJlvWS0UDaXa3+1LocWDCrB6kqrEUU3aOfyE+99ugQ3F3yBz3e1ZRaWEDP/zAMkymwRUmi2e12Ldi1SHEb1ugVvhOj6gyeiOfwyMcw+lVS/lG3xMlr6JsxkI7uCYZ8S5YCkpjB9rvDyCTEBAHmnNdnCMMEcOmEud+9Z9pg8pQTo5+bWSP+FnWeav3YZ3Xn17+8hFPfovszY0DU3SHX/0ZJHqYKFXYNECXvTbr4tCMk9g+JcOlqey0GJBxZP1akT5C2ASzWJn54I30TVmjuv/P75Rd+dDzDeO5ZbaknZ/sgU4Cyz3djby5Bb79rMD8B9GFwD0rXieSHE2PEFz4YSjd7VQqD+R6r425v0PtPenSjQUubor90YjwyMfMOjFTAGKeqWDJGRWt9cUOXpJrtdyZ51jPX7jpCQdNKH0WzbY3fvw1aHrSsgEKy8w82uWgtg2TutD+2i9Ko6SNALR7X9kAmC86UOR3yPHEA6999haPrTlD1viMkp7j0GnAd40B+OfSjSrHE8/YydHJ+srhkwUZj5J3HnUlY+vcu3k3tfBB0a0vEpyORGQ5Yy0QDc332QSP0+jPFClQ2KWdV/tvTaJEOvX2/cUChkDo6Yg35UnWTRDjWKGi2f9ahHAA909p9ASUOr9JAD5Efon9bly8k93m3qEhS4L6vbw5AbOwihl8z00R7esEkuQqAZo9apRURwntQ70fCv4OiharZ5Dpqgay80J92fLwtey4fgnZh20cuwrMjscMSHiHQW6qnjZWKW9pRijNHrfVHatqc97eR6U96c6AmGLixUz62Gy9CBzna63csQ+ittd1pVLtWrLmGq5W/hH5k3hgypWK42Wbn/JUTTz+PQK7mT/z8xa0GB3J2JlDSgoNVh/THOd9J1LI/o+JlY3s4C6ZfMPEkGXbwhKy9Uz47fTkBx3RUOUHUWfyQjXDh649OVLEIdG6g8Tzlr/KXkyeyjQ8aBCKyA+wNa4ti33ph16mOixwzsHmzOXUsB+/gDHr9RXxE68CJhBhtqMt1oMrlcE9QCVDPTDu5fGMZvTST5rCALU00bzaOl5aUxyFsTJ49D5Z6sw6cerzg0imQCRwi0H8wCDIubCWuKi1xcJEItByRR4Gq//L/L6i1SVjdHoQzBZP5TNqDwUFAPXHg4ScwANrfU5p9PrdkzxWk8lRGIvNrbuYuq6L4TNH6TWwCmV5DMTkRUWIQ6df8keevqb1Z0+zzY2BRFqqbwYYLyVSw//Ujlj5FRs7iluWjCoUEtGrdAjNHMbY4+B1aJEWnrxa6GLaN3/0YSt/To9tdiKtjikGMgy7+xERCzu6qJ3oPRDdRwjL21YVNQdgVaDK/aa4gQMueLvumtXvn7Q4UidzLaKIZk0TcLcwd3BctMfdHpI0s3JJ9KN1KvVT9VMlgjp9O6bI3vzS1Xhn80/Lo0jmXx+G3q72btJbK3iTPmAPVf3qT5QdsJ0pGpGyRtwjTMJCWDDt9TJNkviTePHPPEU16BLJcLuZxnWTaW3WIKUhzBem6X9ywxwD41D3iCE9sw58PdDuIvrJeyctHpgzro7PgtbCN0LhYnxpR+replxLuRWLLs3hEpkwBXro0Wl3ziSXl49HO6YulVNHyJ2J+3UNSPWpCoTO6n3eQYx8WECY1zbrHr8VW9pNAoOO+oJiLAYKMpo6x5Q0qiqbxJEpGg7t4I/VXnnXqSdxLxxFwfc9Rs2fyDW78V4Us+pGfVBKInWtKuyyqbe+Ju4B3dw4cXPgeMw4iQRlKM+FAvPnmurioSBVDkf6Znbl/mEPwKi8JsjDx3yTJgiGkefnXea+wCwFLILB9i77dyCfgiWWC8eV6X3F3fSUxX541a4vIUuoFnKm/A51hQcOLPElYeKZAbMmREvbAhoodXbDeUjBjDdl5738p4snwFhjwQJGHfg1+vtXN2xQQPrhg4Kdpk5xOg84trS4Q1UMBPoDtyES8NU7TD6Fy+nMHRvMa5bSGaELJ3nv5lr8viwxGdgzN1/AjnaBY22YOV710umL5qsoeeiQ8LSxSMLfGwkwwFrg/KC/rt6pSUdJtUCaBheN4fh89FdPHwuLPCa3mbxAqThYTfVoV2yfNi0kkUkTmzeYFMTJj1DXEjP/F8PqqisytsN21fCNqqohJ2PPZpfoY95HJHhRgA6+g79GGNObJhP6wuqz0LnpCQ3JF4UNbNDbashFu+qDUkKSN4jY3KEmp26W+tUXvMehoZp9/UDLTL4sKfsuSYG1XPcGYV5QuRi1+jQ8aBCOiA+wM+vVjRHMrZDKGFoWB/Nhcm+JGgBhoePQWfDO/TqkMlAdjNBB5SP0OI8DPy5Qoq7UkxApO99Jir80Cfj4yDhOZ2w6VPR5zvv582kHtrXO2Z4qMAWmgu076XrZdPdPlkpQT4ztw5o/bwzRKdu2gtXXSEF37BNEfahy1N6tKj9/d2XWtK98StPLH+rMKTiPyn9b/u0UQ1MlaF8hdFTboKe0yuf4OCIvXwd3DELInEaoth8aMsSzhQdPOLV0bJPEA6WEOS8DQV3WH4DMihRIQaonBpCTluFnlqUK5Y3SN4aOLeR+xaecydiZcPZNyNyrGLSr97qGV08TFTc5UPWsHUGYjQNWS2UCi6NkRlBqAzSDtGGYcsIH129pm6clu4CvNrh1JOR9qETpdOMGDcc03p3VqRJFTawx8NZqj4VQP/q76LwlPdo5AibsX92YEh64GEc64FhIcLxCx/7dK/OpNM2GJoGmt/X+nuqvhlHOQL+3uuajJ9kEHCM02U/1vO3OlUDFHXbM0dBiyA7KxiH32bzjv33bYtXI7ijYekloJ+UPnk9eP045YTXTaYI67qaKjp/vO9h0xNHmsoACao2e+1YZA4c1jbD7RvWODL/M92ZTQKazfRNsb15tA3YUMXA1IBF9e8xC7bcnqyQ8/3/gggPO9q0M0lwwPrppQ6gGIH3uHTgrietrBQC79jlm2mV+H0E3oMs6HbPHBBOQqHqykrBvLMtf+lBotoGHRybB6Hqzkr5pMvUvG+YBl5Z0Gx4YCpUsd2MMt3Ua+K4XjqpeRZ1dU9KYsk+6R5WC5hYyhGrbJ2vo4NVoYL2sBsnFNa3vFxVqUem4MpiiS/O15kCghmYzvqWvYoED16rEic11c2t9LQ820IdaW3o6BJm2Ex9XhJq4+8UVMDIjD2KL7aSHDzcZ0sMk5kGCufJ4h7Jxm9WsJXxA0HfIBiPiRhRSubqGIT8YAoeDXeZMJFDzj7P0f7iAjKVN98ZMMzeCOy0oLwv/mdmWv/D852hpWkzYWg7mTaeF0alz6epTv/5Il1YOUpXLNnUkVCkFaZztSoE9o76vf8iwKnbUo8u+7cThEc7EQR4JRjp9J52+M4lGa7nrERoV1n0K4GQSJ05hyGXb486+W1b3jhvMVP3wXY6SqJYuAuO0+S8BXSARZRKjIhY6Q9NBFu8C7jglfttNhvu95ntivOayE58etk3hEkFedyOoCrIzG+naeiSktXzZQJ/vtDhB5QtFjzKTi0fHCcnQBxMxlvtxMw8XKTBMG+LCodhA7XBcSjQ8aBCSSA+wNRgnmPL/graMQqlSLFAjDsqsTk3BGBBDIB9TcwYlhFlqifyfPfJOxMJd+I7ONU5dnanjICMLpUaSe/XYVIgeHJ3VYlff1oAT8rIAzbUNZIQJr/vkg3fY1O3k1fFNONxGm2anLW7vkYioabpFfNHKYTFkI+Nc5NU9cW8LD4ZEudgUAavtylr7yz8WqPfHI1VxYl1MOXIsx8EEajYmxlXY/93eFjiTVw23cMOrDQ+BoPsbGl9cWkbUkky5La2KujieCkMrVLHE48d89MZ+q2/rKdD9rrFBvo8/onQ4cAqM/5QwbK0797NhIdcrG8VGYSdxox/hjjkyDK3V/i1YsIc2s2WedRV/hg3DVj/kJ4z8aK1qgM8eq+NR3as8DShyh7XAaFmO6Dk6sVrEcQfVElDw0+XGt/T0bcCatYJG228bth/VHPe96+uUjAOcs9wQ2lcDx8+YWjDpYOVHCtSpQIBxvEuEdRlIc89ZNhRKTp6WxrXny3SwaokRlyOoEKRjI/WjJ3xS5J4ZkHCh+hGgbXK5/Y58JnU+x5Kxl7fIq3vfviakErQD28qGrdS0rIvFIclMyQmD9AZVOTdTVSNsZsLhPgATF3o+o9NWyK8UU2HyzqyesgzT/4gN5SpVSJn1tAP9TZtYzHMWWRG73nYb1QAw7FLeP0P9U0ulZCs0JoyHNg6tibtPKtyX0f6YOENDFXJcJCBNMtPE8sMHV2g13cinhmPuuEjGfvEMIQjuUJ5ccSM+b0BmWt/3J6MQuTOe0/H9/8i0PpF8EBntCqe1C3AvUN6HubBJqLNbsWIT+ssFPmx4leeYvmeJUpJ+PICXVouiWmdECBzd/bzw3HP57C0ct8Ulae2DaMdhZnAq0aJWHTLw7F5RTQ1BrRJgNzaQSlO7Cj+tQDkkcuzhzEx8uJT7k5IZx1+dFuZyG/WfmoLLVNaRRYXyVhYoJmCida/OucI6KywmwFlNIsGN7z3JB2jNeYoR3aSgepLOIy5fPEyNWbGwIbTT+UdXHPZdwIH5plBVDRp7XgeRzecAUl7ZYpk6/jEvb8S5OyneR+Z4pATs5TfpC49Rne/zDAeB282JriIrODfqEz6H/L5VzmA3czxTv1eBCPGEP5PHoPMLGX2G/ynb4J4NjVkaKk0N3cEl08ZRPYEA4Wfx9WzdYVmiK5sz9WYEDZgm7lp2bYzRDaMcaaoTMY2oJIfuAF+fkZY/vYNAGf1Ji1S2NLm2jdXCoKRjdGVmgaf7+M3wES0hHB9iLsGfihjWKs0f0rPWB16/fsryqjQ8aBCWCA+wNQh497yGdVY2Fw5H81NluOzC36GjQx/HBiiPcxEkD/H9ZZXMc86//WIAXJcxxOqPLAqgeoV2k/zm7Mdlj7rz8ZG+hC2w+4LVlpPOdKHBug+wV2pKgefd8U1idRj68CECLu9NCXlvOivibcrD5iXBtkbalgUVdq+q1LMVPp/WKeL8DV23BhSR5xOfrmUvxEYTyIMncV8gpihz0sPNaCM6pmlPr0RYKr4OcI+qx+YBiOthHmVLqd0zjKihNEbfDxXlW1X4ld5zTxge6CZeKB2COsEHhR8t47nziuDRDng1Xcd2ZqeO2AwLZ/3exKh/DQV5fvSBiABSCJnceFtbL4F8UYhyfqYzX1aUDlHax2rag/7b9kQ8NwijAWy6ArB02ixwe9RkWb8bmgJ+yneYs/UCroaTSPWLQNks1OU4NcRZqDQ1CxQFhLr2WGTiUK0DuyExwhP39ZptNlKBA+d76dKsf/qT/hX5EPOylAbxSItFwhdair9iTqTQQIM/zqQl/av+c4jSA7F3hoFErVGJ/+sr7czig1VO15WyOl8cGeq2D27XvABTBf+8wwjyd1SYlwiAj2tkc8GdDaez92qqDvPVrzhydjd8SQ1iQB88sDZNq9MHGsfj/d4ONCeabpqopH04YlIiI+t0TXkvQ2AfvTEedmjFSbWYvzCZwxnqyArMZ4AlLFGQsjMoOQWcoUQ/Q7DY1eH01gZTNzSj/Teun6HraNwp/BGl9K9t6WvEuhX/P4vP4hzq82UMFpQQICGfDEkK8nsInKC00JaZ5ZDy3EuUu+Y5u3Eu9COdGicpWDxINXafo1FUl2mXnxRrxr2povvptbPC2AzG9dOzqJYSaKsCGaWfcgBteb5sb1wQmDaadVFle2zRoeFBWm83soiykPDn2ixNGNT1BXqw5hETcP/FF98L4As5X/IrZrC0zaiyaCpbVwflvdCVX9cM6AjOZN2GjXToupuZCMbHFmupngCelGATmvWcvzxT88486+lblodyo/kwp/Q6QwiPSnAN6/k2/3qprB9O9HAwALzGHJhvDomnz4ZN3CT47uD9kr5WgurY5xbn9wIMEejXgHoVEkFj3z8cqFvkCfSPAxXKWiF2rvaABzzqLlS0uxaPTPShL099FpSeuyAStHo+DB1vijc3EZVMSm/+7061ECCUAOir8xT2K6kAkOwC9CTmcS82Rop3IPnznvHF2uOZDZFpw7FT/VlSh5twD1VD1JzqkkQpz6oLNH/bk08xbLSlOaWsnJL4o3Y8MLCmW+Dng7tf05LH+jQ8aBCZyA+wNSP7Q0n93FtpA0QFJi/i0woPc4ddWbdJJmp8zUEf94YR5xOksPPOLGabto0rCWNpwaf1BKEdMKL23/LpyK+QUD7v8AilUHNmdUfbwrY8hjJNfWdL9HHL9tAy0Ainmasxv+vhkJg8lH4h0lr7XG4guzXhgAdFQcZgJVjwjjRDlYNWBOrubpSegqcLYxGOrKlSZjBf3kn8LnyoypJK15vVAsahdqMt0lqYEdNIBYXGDeBm1aPc6aCclLjpts1p48Xm8A8RVW96LvXRo+B6GYAkYvx8o0VjxRBgVGNmUHmcuscBf875lrtRLpgt5bnlLchDa3T6PqvB2Q1DhMPVQP9G182dquMkE0z1+CHIqnf8DnLM5M1fGSbVQyr5xbiNOOv8UQt72dmsEOl548bIKnL8mRtZe+3zb/CDw6hVu3FdJUPFGZr9RDnujJj/wqhr73WofSQheKFE9T5nyTcL4yCU0lznWsD1BbArVSKycQncqNrICKp8/H7ocq9H3hci3z4ls7BD/W65Df8Wo36WdH2yUGOnb088OptI6oI5XDZtyK99ZlF0bhRLZwopqHs60C5CyDBVMaLy7OHoCTSzzt0oHfVYgQfOYQToDpQykUgrMAj4523mKACFpONJ1/3dCm/ufKD3UY9Nkn1aBPLYs4o8i2LNzdGGwFP/LeXTBU/gzrsrRIPuJCuzo8Ns7+adPY7f6tcHfT/Wpndm3tAD2Plhx0gmaiU36CfdXo90aclQf5moEraap1qdCTvpCW3DWIQBcY3Q2Zm/DGCb5y4AujQNTMqdb5NU6nayCkPO4xI3XXwcR5JhtpwcV6TDioEsjtKVaxI9Q7aaI1Ph9zPz9UXZvfPxNTSFFjvhokUD0xoVPOK4A93KnH8xhX07cYqKfVn9G7c1IIR0c4s2Gy85U1wf4UkznaRrf1+bcCi2MIJObZXNd3KFcZx57Kn2SUT2RuRsYjM6/OcbIoAnp5wOJBBpxzfS1gOKg2OrMkIsN1yUMiyaPkQVVH42VHaO8UYCx5B/IZWTk9T0fDhdV9VmCf8nii7QbU7VdBuYY54EyxUyFIPRx2uCEieP9dMrZn1sKDN3WpnVbM2t5OshTmlBaJLZAcEUfbtxEZ5DRUV+3hycf3Cp8aKsQBraaXohl6FV6MgqfOQ2L0Y9fYsHlGt1Ddd/ODta7BHCjYBml1M9o0S73Em9v838w0ZBvnkv1muchaX6Evi5XOXAJDj5T/1eyHLSuN//fnAGnXGK6od8dH11EwHkzJBVD0QHO+SpU4xBB1SJqjQ8aBCdiA+wNQBnvo6KBIbuPwV++vT9pxOqkAWBCGlPzfjuK1rUE5aUpIgu3r+o9/HO/NaeFVGGNqdB1Kf+a3DhomWTbccMb8zDBxnVdFNL3HwXXo64lU5QPJiUIvaSxs9QkAHTKABE9brscbi1vTd2u+ep55D655G6XxAJ5RYH9RkLlkCR+5N8XQM4WF8IRq/SyRePqBb914Y6yF8GXiHLvgi9GojrPvsNhB+4iKqwagINApv/5EnI6kZLinQhZFb57d8F2wIF0BRtXmg5qhHxHB+51xj0XAlpZO2x+jI9VbeKWvEalqNvGtDPSHWlLEuByMy8MzvW31V822IVgex8edpXIQDOjYtRSl5sJF5C+PzPgkkuj9Ebm889ApMQhQznSu4sTbiEs1okZBPGIGTZ8bvB4l2uzeDpAcWOswVMyAOgFHJ6yWG1mJzCl4vpUdcQsucthsS8S+E5C723RStQCfLen8qErXdt9gFnmjS8zcT809avqhN03+KO3fVt+/q/GU0seb0gGT99MwFQ+COkJ6YN9spIIH7wjuonX/VVeEjS6Z+DkNsFl7k9AqnFxgt5nEUxV3ejDkXjY3qjSmmA+1kLWLqyVY2MHr64IhoJxU5oxhYtDd7FKFl3x25lIpWSyQjd3L56DIPg4d02mNOuuzBMas2v6v8H4z0L5oBgZGjdSo5bQYkAfAc7Gn7ePDyGByNTX49cnZ1OoITzSt4DX9PHWHREii8s1oiGY3aQ+qwvxj4biNDgu15G9YRJDniyHzDZY8U50v28zpRbxYsNk5uz6AFreCGDiv/4PtjJs1pgVajEN/dAUKEnCsHCtjRd5WFyxScVCCqVt+1SJovD9dPKPjwgJXUAUxWD7T3B1UTTV2nq0ci5EpimI9w0p0upC+REYWP0ewr43AKNJ5qSS4ejpCT/Pls3W1j4s+8xOgyQedmT62wdoJfQt4qBs6YZIscJEOJzDAP5QEw7Kvs2xL5/OSQCq61IW79Am3bf/qQ8y8g6xM7ZadylLHxDFfBtfzYBAmuq5mUo4XHiC9vmLr1D5IW7ZLLiLWGADHUBIpOj7wV0mDkc3vWlgjWjBwswlQ6Y23GUIbZExOdFSYQzc67OI/Or7PHNmd63qv5PDWTLHVHuC/MnlFL4q/40KR8X74KyouDBpuQdyILRk/9nYzeVz5rWt32WpZw8l3JsHIF9ri7hgz1ImDQGzhyaNAcz1/28etTFSumEggRMBMU4Iy5xSynCRp/zrloAV9Px4MdqrrOo6Bk8rAMrN1MF1QSzb2v/ws3SOjQ8aBChSA+wNT6BwPGsDV3q8Lc+yJ78rLJcBlQRNovHzgjci95fIHJgM+MreReEjMeW4CXfGMMmv/7QyWZps8byjoNkMlEG5HBzGhcVlJnsszQ0D5n2XeuRmwPFd8LSoAIleJ6Dw3zj5n8o/j4KSo+MATBZ7BkViKswNNuLlf85KmKTTmpSJwyNbGFe+q86fwyC+YGts90uVSNGBXyWt9FMbEJRyav6otKJfJcNlUSj+u6UDTHWSmTj+WgCDcyWQptfFrfCT8DrHxv9u+srnA79BEnglof2MSBXA7+dhodaMvyvsomCPuPByqX70A/k5D7LPmU3Ils+1vmNJLJvaZVciUot/L//AKE+reZoxCksNW5o7waI118SG4euv0uYD7rAZaa5Sz6QvnnXYT4UeZ+IHaF2eh/RGSk1OYX+zz8xjz3f3/5GxDvVHTC7uQRw6n9nDAr6f21lM8JP4zczDfOW8239X7+GGAnztm9k4Fp07NVpvUeMRfVLXIGWmtEe8g+C134x9WV28wC2M8E4SAst2eI0m61fqljhvLh8qbGgQAhqkhb1yJ6/xUJODbu8qJr1OxGcXx2lCTwxVQLIKjBteJZI8ZEzCj1JXn0WCz1no8LEcMW6iJvCJi1IH7uCc8JQLVzxhrGntu8Pk/KmLQNVXE0gmjweh88f1PEHZFwpHZJsbg/uOJ3w98pSekFlwr0lnOuQog3jERhWxNrpYr0oW3+wVN9k70HxZeOzQqPiFe6GpZXx9GPKh20NV+y4AHCA6Gt3CPUTFJQbrm9GgztqMiI/r+SAeO5ao3WiebV/sxHuwT5hGBd0ngccaPEj1UXsOw/nrx3GXakDT4zZdiTT5l/Bi4LO/aT8sp9xKJL6l1BzdlvUkw6OFzRHmp47vpoE7po4xVeVEI9T7Fzb5mgw3moKSAkh3Z2rF7/tUgaq+YvYh1vwELByF9KZ7aUZDIW8+eaNZId11YVqVaS8guRgMhdDKYzPT+ud1NpdgNz8RO/4ym/WJRbg/cV6Etnb2D34DbdyqiZTGPA9ByG+JYgal2on/z+9n/Bm6IIQF+S4RqSQ3D8zhN+rtcY4bkb5alR7jYeO0fXIJ5m2ImL8f9uINybnbP4VpBWbaQGFV1EOiZbNfl9gJw6O0D8IwBSYzidXOgK3Ml0Bo+PLcPyRuVw13nn2Vfe1df5uXzhlbYgcKjpEDBwtsWWMuUe1xsiZTg/FjmbiaZwLHj89kV/i91I8L8kNH+qgCI2yZKdlvuR+ERonnFE4wamdu0nm7eZLzMSIW/oI5UfwCjQ8aBClCA+wNSVi5REldKB6CyTW8qzFVnXmmWZub3v0a5AOrvU5POtnx/KdxrtmLM18x34D0n/+V5Ayr0ksLDSB3j2L+qpNFUzGlVcgAYjsMK1riAW08rSoVSVqHHB/xuy+6MCiq03rQCeGF7RFkHQAIbPFs6mDE7mVpJyBG4IXEsEAqvcnhusqoabiNoE5ex6MmtYiTA39ZFuDB8lK2WVtAlZtrnF8Zo0BbJLlxhZfUMUxmjVNfOHtDDFF8nU/ztKVvJk62HHB1vXmrj5/+Y23JN5KdlKO2OxgMs9xowaJds66zIM5MMgKcMVk74gjUmnehpeTjMxu6eid5uFbWi3qrgEaABkh66Ffg+OzT0Ed3qTfNu2ViIo/uhYtadhUa9XI7rJOQcqxhzWXzDJMsM9CLP+U72/lWyKUa4vQh5GDBUU8PBeTs+rVnWpRq4S9/qiuvXsPuqDplrPhLE3wvgQbGxOZqrgVZLepuNrtmz+l7HDUopjLJhobhq9Fx6UxGJ5VAsAuA3TN4t+t8GlzXc/v06cWXo9V0LgUCwKKAYcqE4zc9/JoATIK1uo1y2YUhzdakh5qzievS+MVeWdCphdHyuEY5tL6PkKO6Rwu/wQzl4KRw99HiQb8soXgui+C8x//JID3aLFKKcyieLBVXg1vxyJCfHdAOy0rniHUfrdCNyshrxZ0Gg+yk9JATSSeXE5rftQqMFhPAf/sIUghIZ2Ev58qjU/qjo3txTp+r/XQ3IMZCdgHInHBOWG6nnGAz/zoQPsC/DAuia0NEbxXYgBtQfEPPtFnlkNwu12JxqR4ufjzuY5vYPYqDSAl+WowtBWrrXB6u/vAT3Y/rtUJuwTCyZF9kY7wy+UXr75YekQekXekSfOetEouyGWiYyTN3+sB013JAxHe0ibXOD0BWEtz8pWN48sWGwiZm7vWxm2fDD3z7UcpoG7tUU1QutCUUBoZroTRdvppj0LRlNuR/DIYgobAaTEzLBVREYUw7qDuMldIscyf//XUersYXgI4bDdnJO+RwB8q4szxR7sNypnZmzt/te6TWkPQw/AZaPwz8eeoJpo35dAXEMRfPMZy5PW57rX7CdVdQFzV6/3mwbG5MREhrWTgmHGtDpc1ST/o8ufBoUcUaxtvuWeZn4orW+0zdcCU/ebLTCSwta7qMScAUVwJkYw2JWhgrXYYW4couwc0lPhsdlNC8nSGwzfIZX3FwiZ2ZrnMjid1PNfqIpulUnRfeMLejSBEDYQw4IJJ07xFWPsJT/SlJrvVbtJ9C9oKOASAxP4dqjQ8yBCo2A+4P8EfwRUcS1wMEVJCgsoOTzhvsWv96BM/+gYpUPUF9UgtMrZze/CpBct7lojUwWZUBYCC3qWcAhl2A4rVlMFY84th1Nqhx40GjMp4vxL3ZVS92PBp22prOjeicm+yJJFstWOpqlaeLSBHe+jjjtjKSiynvXMhTY+V1gHJwclj/YLcshyUJ9SUNniRK0bZUYuJucP7SKkOs3yltmM8O20Nby2l3c/Ph5k+hzSHWWTF4KshiBdxZs+q7CS5EdLu1bIDGMEyfmxhBxYouhXXh/awOcqs1M0xBOyNDnKTQCPaky71EvW4AlWrH66JYuOjBfBoVwPEpNWD/0LLTSOl3yU7F4bmmFbPFh4MSO2niaxPvvV7QFlTJGYSCJLyHK/Xg/Z0qIerQOTzYBT/RvuhIhZFmIncvR7ciGy/gXjfjgTTpBgfq6GaJR0WSQ8uMfp6tMVowzgGOLpQRJGyRdElP9NiOM2XbFXriao73VWcAG/Onz9koOBGNqZwZ8NQnYz6NPWaxH/G5UxJqcjy5gDNwrx5Ig3c+w5BpJ+TzAo3ZzmLbEOFgaFD/EW5eQnpAdtDmkQtIAWv+Hzg4F1ck6/HyRu1Dyd0tzH+FqpTesJg/UkYW4Y6QOWxD6q46Z876Lr/OmJ5BJuT55wxoSRWp0N9T0p2Zgrqo+eE+ngfztRCItEd1dcq8Metkxer4h0LQAcKaVkSHdSQ9NO7fdZlYqQWzmXWjI300PiTw7wVbsV0vWlXAbG9HY4DNcCSGCWbluYWz5w+R83G3sU+4LZjbSheMZV18SPwINPcXWPWqQf/CYaAy7aRN4S9o4VXF7kQ/ImWVZx5NhY8DNztjmPO2dxCpRVAGEvQdWM1E73RmURcZZlLZGUwxiC1NvS59JasuUmFUJFUWaGmjrMAnUC16MEBNDsnTko540sbBnXeBDDxh2nDK5+oZ+/s5sO5RqtKhvi5THRM29+zDzPrQYlSjxo3ksBUGR7WKa5sPetPggXlyKlzLUHp3AS2lbGiad8/u7NHX4AjDloOGXIXAKLrRwzqhkU1vY8EJo0C3iT9bpljJc/3Qlu0/sqkfjGWe9urTrmtRVVYw1Y7Pi7Ax5IWDQPMVHvligFDarmJ4g/9BBJnqCiKhyj6k1iq0E8FLOGR535/vXTLIp3HCJp6+b9ImWw+kf1LYLLwpgpJL4sCdiqRi1XJR7bf1aGOcG9CCJLvnDocGhg74kHl8rSto/WXvwXT+XN2VucAqic6d1WwBHNWb4uxBuZfJZgvCgj9ppVHnk0fdOPpc6Kl6ium6jQ8iBCsiA+4P9Ef0QQHoI6SqrLGJpDq0N685PIU0Njy+G5GyKGe+lLYZO3/rYiVAAiLWEENjvh4W+ADmyrRQiUzjnPeGvU1BGXgkCnCKo/6jbmQCedc+phfxGUTQFDm9Nx04HjWrKU85qw/anvDjryjp/6kD7XyYqF0LYu35tlL5axV8LxJZlMo+AAeIwdXjOljEt/DN/yV/u9Jt2ek975ccQKpdt0Joost5UiGO7Pts4F4CNeWEOJ3KLdS3YEPH1CNtOBWgl5+g8YmnPuAaSb/Qt0SGmjiSGVx1oAD94ZlfD7G6xYFjlZfnPV6PScOjdHW8gXfLd8o1XLCso4R/pPUT32ipyNYz4cFEH+UZm8USwXv3Zxe0NcWGm9wNyAT/5hfXlMWbo+mMp2zWcEdgsGTSdH0Ul1DSYl+7ix/hv4j6J1ZM8P1uPQ+56a3XgRDVxtaMcsxa8Kwev/2u4eFVZNI9vHUYVS4NjfLQi9A34vK16KgFsoLR8sUZcxCZtHzz0eUQ7WO17Uw1qCzjdwQoLBkeX9vKKExtNog3+WJFhnU1cTve47ZyIbeXgt1g7AgaVeTKdNJwMPn98ff8XfkZNT/KsezwROiU0ouRwcKkk1KyGjGgkIGZ5qhiiuUcdFrKOlzYWi10/u2Tv4Jm+EzHZi4q5iEf+fXIJVEofwc5dPaDl82EafCerqddBZKmd7MBRYHUWj3zgbTnIcN8aGx1WLja/8538mrQ3Sr5KCH01C65mHT0FQzJfM8jQkQQf4+9Vf57VNyhWFmZn85yFbi8e7+foNMw7jAXcI2e+lC8e8BU31646GkKzQS3wBsGVM5wHnx6/+50s+rJOWwtboulHZKLPTpigalPgsrBRd/X9mpFN7X/+TqrR4DVY75NY9QHQRnWmByoVLCBZhnnVT8WK/qY2SikEXmqMqqOIyv+kWi0D4MlIAEfVb5DQfSWNPCLBWM40HmAOOubulhFHvGSzjLv9xcBD9YyTZNF4grLFSTYuO8CxYoTG6UKw7IIh5zFZG/AXiOoxz7+QQEQh7NOTvbyfJp0F4D/GIf2+NOaRyJFuIxFcdb2y2dTWVM/urk4UzkYZW+bVF6lWyR8EyNq3yPrdy9Iu6EvjAO8mEDDXb2fFBG4aE/c2hSoeCJhTYPUvWGCKJ5EBWHDD69MbxMESCybhanBvrEHyms2A31xGzpx9XEDnD/4fz0nyf7uiC+6O5RgWFoqdGw6wK+/wHo1eHRxKFXM8RyRDDU4Y2fHXTil2dSjTbW4ggkhrtTh438p4505CtVYT0bPi+qNDxoELBID7Az+TVyrLFy3Q1IMNohjtJtkmmJ71FEiHdYhJjXRBvmPozLFwjcgNN13GEztfuL061EIuLpoFL7jTwdnIfzfTfIDC/7EUO8nB4HYylVGjEV7Je48GpZdkN5vydX4rcrV4Le2gKnomXj4O+mys1jrMiosVtiv8COb+QkmXVWSyJ0C4sOT37DHPYkYS0+0trE+Pj0iBGc2X47TRIujwRjsp7btRXV2pSkozJrKwmnap0fR5tOT6cJTGu8DvVhMtkpTA9Q8O+fnZ42fJlIbA+mFQakr9WXywnyodydU7uNxEOA77SGIvRX0v/dl68MqePehDKKJXL5ZgCpq9kiuWw4ENDCRXZq9SwPlyZibmmVelXsh4TTVQEIvg8XwV3yvgk3hZcAdUjWf8Y+xXFrWxSP+FVGbS6HKq/emAPF80JsVU0qyYQK4v0jgTrtrYKkN45ET8wHH9z6L56e//VCtF2bSOC6lTOR09h+70Wzjxeuc7gcFuC7lS9u1fDBvA3CO2IZy482ZnxD8cme+LDx+anPJN8YQmU5ReNB8JmZ34EcxNhKzPG0KwxTP4dZvH/bmkPdIkoxG5skYeKtkg5nNUpUUMDphQqFXmcU/6ejEVLde4rtPgpYb7T/78MAiUHJvfzmek1sCezo3pYhuV+s+HhMHYoeQL90qb6PYe1b+/4HvmpwTL6WYB4v5HQ3IRsbSiEg96GnQBZaM9E1qHtIjgXZsxQpL18eIUpHOT6Ini4/fwapKGu0rE/1WbKJP3079q2yFN6EE2amHBhcqDb19rDtRYjlKW7daGW8Uiidjfd143J5O+sZahKG+xMgQXYLoBSJ+3ODxlhf1g/KxOoxReygFqlClQc5v/QZlGjVCdlwIWFEHtCg6Q9ZoUGYPOmnnvod24+zgri909Ian25fw+dMGgyGJ5nU2lcP4Wx9zoA/FIE3UzN/Z/wUiFj0xAArC0xtVCug5a3/9mHWgKF3OUbFnOvfxydFusrypFXAE49MTTrVwiRacv2TvbwHv8eIqSmo/0RGZTwVyVRgfuWRvQYOJ8dkslHMDt46z357tsA2hAbxwnUfpYNVty7kfSiunjviNv2aHJOhFzkARpfg42m8NyGFd0pRlp8/G0pH2iT/NQUzpYSsJKLbkAjWXj9H1G8/9KYphWAAxDl5nQmbPc2HQdrvTwv2si6zApH+0//xvrUPRG0RIFD3iYYtJruc+3kqS08tKK7jdr85OTUktLW56y1I9+D3kIglL4zR+vkX0Nkowcu0WZk69g1c84QIpiRhfjj6NDxoELP4D7A1KCRAN0qr7zDcLD+FlwwrebdWt7FJbwLRKO4zTGcMZL4ITbBag6DyFr9E41art4hRhdEPJ+wgFGkgz7Ha71yXpFknLWbMLSyvmNQMTH9I7ZyYawKnVEkSigNfdl/f5KBmDQBZ0pCvoKA4bG2EbahVGZag+CzLOc8oUg9NCh9ghUMU+ca4OOLRbyOWlt9ca0taXy2glCm5ZMMXA6pgIDypK5A7Mdlw1tNlbxoV806YhRIzJoPKCk0bLH5gbsidszBfpL6IdjiHdUlMyIYNLFO2xjS8+FCxLK0bFk5zteIimKJjVIKGEvgmXtuDRVjVHceFhcq5R7A4FbOTry8Jh8xHzVCytrvLIRyp1epUz/hvo/3zr6qjrwoklC4XIjmMjzRa8S7M0miXWJayzjOUTLbaRP5DUtuh/CPh6f9DDFiAgoWrTPpEPD+BmXonIVVhJCmiBtfaCEHN9ipzRbL/AeAvtxSG02C/HmhsQ+6KyeE1he8fBzeOxZdchsh4jf1axsB0wzXOlyKIJRiqVj0sKel7lU3e8UFyo9GDIxD5bINtYXMTsuhx0DHTdUqUBEOkyUERk964Yms3T/sU5lw2SrKwt6HO149Z7MGnPaAdH1IuPK5TpvvAznIBEfi1p4Hp3WrWdMk7H9bIH07XiHsObO1UtUyor+AM8w6qRPwHMsbxEBR4hsmg4NWmqjCV49IXIEzRdE+JHXWnQVoLLL2wSC43L3ngD21OOSXapteVAa/WdOYxueyM5xa0w6z+g15rq5rcvy2uAjAPjRIPT69Bl6OsDWOLMJI0V+q92cVIaAMPkoxuRtEBqDOw016MKgMN6bgDqIp3pzrDpOWh/8Hqq1w49R5NQKdzaAl69Pwreh6r5OviNkU52eqJ1Dx65CH3LwWotlbgYaMT/BjkOrkB562nX1aFWHDAciHryDr6wgu82FX1NY8qN5kwtA/BUxpk5KGKxT5BfEyDqvptKn8OmliVcXora7JyxEv7xPukuWWIKjfx3q0LsoNIP86vuLPOuBFCPn1qpR8V//TlUbAMjnEbzkaLf9qtq+/snGJJQS6uvhYuThK61ZX2S4vO2gfOVnJ4NGcU8n1kgS3aXSBq1khW8tZuuyoKjllzJjeYFC9Ni76ze6iQmG2GWFpD7WDNV/zfSAqBevjU1lK3uyZcqZ2g45XYX4GD7uHSFxoqcb6BZ0ILNTfh5QujWQeaFt3ZL1JDLpIqJbQLvteJeHpkNFurBGxnuyPcf56kXf/H9HOfqBYAwk+nx/BGE9Q1+Jyg/1ZqNDxoELfID7A0+rNiyYMKDtsFfC6xYniYugBe0BJySbtPHS/AjX81plP25FLstOw7uHWekVi/fkuId9uAQ4smdDEmp1LjxHbcucYZU3leBTCM1VWwYtQxPZg8McrDcpSkzrmiMA3sUWSCw8SiXBIgSkSDNGEAnJ7bs6PbQfifnB8pJnIKSuqFLWVxj4/a7WhEQiIHYv9VsySLfd4Y/NPT5hKD4g3lAtzBhdCweWcERS2Upfs4KNWKJa8ZOyhvT0Eep604F1XgeLa3x+7qBhzY9q8KLW3JQvo4tACS5qqdu44L+hV4TopEipmfc+eo2hX4I3/u2dm4rXWa53jonGvCazS9JxFDcaxpG++3Z20hDc8UBWWFinbv6NRVgsJ10IBQldii9XL7FKPPf8wO3CbHTWfCzTmv4yRcLGk5UdMpHYPSqmHyJp+DpFUoBDNDyJVpJGSVcj/ZJ/sZaYYWBB9bMCRShSvWG/6BwtrgoV/fONN8IhNTUyvZVDQXz5Rp8KR+w15eD2Q73A1l/f6I+cGtMlCgTvEkrO15ScY8bjhDtHHQWUh2YtC8XFukn2OWbcCQ9MVRqnj/9bufH5MqsCdoRJwP1eM5pGjL/b9oNMiJUg1ioXypihV9TfwprndallsAc4w33qqG9f7TZ5eVDCmrvwHdeJM/yKVthlBEapBQ5pqP/c0/76LkOuqHUl/vOvTLvVSqIzO0XYX0HBaXCAau00+GTjDI2dOuZhKK/6r5IL2wIlH2dNxlq8WO7I4bGmXZqPP2PAxKqVgK+Yb5VlppBeed7QqD7afWMNMpQ6nOxuRpNOjx1v87ICIWNV+sivW9k7R46tNqChd/ufZRCViiFfPDJ34PSjNHBQwCKqtznUSVA4YUavg8Lm9jXoEQeeL77Top6lgMdZvYRTN4OTAcA+h1qxJSzvhHCILCU/i+/qDdsaf47jn2aKBMpGiCo7rLEhDVNK9S8osPZNmSyc43KASV8iKAL7EGiV5fWM/V15DALS7Iy+GZCHIxgoJ/1rmKv+MZs5vS+LR0VX0n7BeyTNNXHkZvf0KyX8iy0gublcDaFzIOWLcVjDOmVCB2pQsLIr3TvMCcEyY/U4jTlCDDxIz7EdFdjcmSuiLZAHrQKXEf9HEOQ3+ffe5tV29J/8nTDwI5EJ5hatXF5FH1k5NcsTjDKZu1e3d6sArrMe2lI9O3+yISbVpHHJCEtVpxLG3h/ny2vyLRjC++JO7IOsTbzSfMxK45mB9UwVLDj8uf+lwhyi0q/Q6YjH8eMoPTzHV96TKEbJb0nu26NDxoELuID7Az+CRgg2MA9+joUivGQbSQY+s6L93SOMGvqyJo0f14PobXoTL/gZjoESylrCraWa4pjXs84sOrJAQqvlWR7YbwqfEBzteGY8900adC6XIUydmZNKIce0BUC9hl8OnEJaJXIs0B8/nVnuxWd5RVXCwS5RRcY8Mn605iVPCNhfMNmfmt8ijATzjIyj43+z0m2ijzG9cpqWFVDAm405lW5VUWZ95yFTVd4ZdDRNIb6y49YewgZaxTkZi2uG4FERjarbThs8BgsGonO0IChP6dFvnMYYZuVuVeAfjl2C1yTQlnFFwfhNeZH/Dq7hJqTaZg+MHLfEvUFadYW4qGYjMjDqppXQr1h4kBIvAbKRp8fvAUedkWHthcrBiSMaw88d7eP2t52GzFwfdYJ3kbTplJyexmpsLKp9mnegPTtS16fu+X0UWUuQTRLi0Mxl1pQodmfthntmohNQE7FON3Cu/qDtIlKvH+/TZ9khnPNG873jlkUGnn8T/Lea4zuP6NO/5vtw0L4Q1Tm18o00KdDhacL/JyKfSp4hp+y/6yRqTAHd90Bb3od4fk1kKiOkzlLGU7qAbYHivnNfIodRdKmY8ou5yMK/szdv3QFK/BQgFYIB16mwBSsxDB22qvPgNS2N2E/8q9x9pd3EBxQlBM4UNvrShSAGoXH,,,,,,,,,,,,,,,,
,,,,,,,,,,,,,,,,
