success,timeout,failed_images,failed_audio,failed_video,trial_type,trial_index,time_elapsed,internal_node_id,subject,audio_id,rt,device_id,view_history,stimulus,response,estimated_stimulus_onset
TRUE,FALSE,[],[],[],preload,0,2796,0.0-0.0,9p2tamorx81ze0o,9p2tamorx81ze0o-2024-02-15-23-03-52,,,,,,
TRUE,,,,,fullscreen,1,5542,0.0-1.0,9p2tamorx81ze0o,9p2tamorx81ze0o-2024-02-15-23-03-52,1736,,,,,
,,,,,initialize-microphone,2,11031,0.0-2.0,9p2tamorx81ze0o,9p2tamorx81ze0o-2024-02-15-23-03-52,,2d4ee872c913e699552940886933776124ae730df024c8d99bc18516f2ea849f,,,,
,,,,,instructions,3,16207,0.0-3.0,9p2tamorx81ze0o,9p2tamorx81ze0o-2024-02-15-23-03-52,5176,,"[{""page_index"":0,""viewing_time"":1137},{""page_index"":1,""viewing_time"":4039}]",,,
,,,,,image-button-response,4,20716,0.0-4.0-0.0,9p2tamorx81ze0o,9p2tamorx81ze0o-2024-02-15-23-03-52,null,,,images/schemes/movie_scheme/movie_1.png,null,
,,,,,image-button-response,5,23417,0.0-4.0-1.0,9p2tamorx81ze0o,9p2tamorx81ze0o-2024-02-15-23-03-52,null,,,images/schemes/movie_scheme/movie_1.png,null,
,,,,,image-button-response,6,25233,0.0-4.0-2.0,9p2tamorx81ze0o,9p2tamorx81ze0o-2024-02-15-23-03-52,null,,,[],null,
,,,,,image-button-response,7,29743,0.0-4.0-0.1,9p2tamorx81ze0o,9p2tamorx81ze0o-2024-02-15-23-03-52,null,,,images/schemes/movie_scheme/movie_2.png,null,
,,,,,image-button-response,8,32445,0.0-4.0-1.1,9p2tamorx81ze0o,9p2tamorx81ze0o-2024-02-15-23-03-52,null,,,images/schemes/movie_scheme/movie_2.png,null,
,,,,,image-button-response,9,34246,0.0-4.0-2.1,9p2tamorx81ze0o,9p2tamorx81ze0o-2024-02-15-23-03-52,null,,,[],null,
,,,,,image-button-response,10,38749,0.0-4.0-0.2,9p2tamorx81ze0o,9p2tamorx81ze0o-2024-02-15-23-03-52,null,,,images/schemes/movie_scheme/movie_3.png,null,
,,,,,image-button-response,11,41450,0.0-4.0-1.2,9p2tamorx81ze0o,9p2tamorx81ze0o-2024-02-15-23-03-52,null,,,images/schemes/movie_scheme/movie_3.png,null,
,,,,,image-button-response,12,43252,0.0-4.0-2.2,9p2tamorx81ze0o,9p2tamorx81ze0o-2024-02-15-23-03-52,null,,,[],null,
,,,,,image-button-response,13,47755,0.0-4.0-0.3,9p2tamorx81ze0o,9p2tamorx81ze0o-2024-02-15-23-03-52,null,,,images/schemes/movie_scheme/movie_4.png,null,
,,,,,image-button-response,14,50457,0.0-4.0-1.3,9p2tamorx81ze0o,9p2tamorx81ze0o-2024-02-15-23-03-52,null,,,images/schemes/movie_scheme/movie_4.png,null,
,,,,,image-button-response,15,52258,0.0-4.0-2.3,9p2tamorx81ze0o,9p2tamorx81ze0o-2024-02-15-23-03-52,null,,,[],null,
,,,,,instructions,16,60143,0.0-5.0,9p2tamorx81ze0o,9p2tamorx81ze0o-2024-02-15-23-03-52,7886,,"[{""page_index"":0,""viewing_time"":6988},{""page_index"":1,""viewing_time"":897}]",,,
,,,,,html-audio-response,17,75462,0.0-6.0,9p2tamorx81ze0o,9p2tamorx81ze0o-2024-02-15-23-03-52,13041,,,"<span style=""color: red; font-size: 24px""> NOW RECORDING</span>
        <p>Please say out loud the list of the actions you saw. The actions can be said in any order.</p>",GkXfo59ChoEBQveBAULygQRC84EIQoKEd2VibUKHgQRChYECGFOAZwH/////////FUmpZpkq17GDD0JATYCGQ2hyb21lV0GGQ2hyb21lFlSua7+uvdeBAXPFhzs9HYEnM8qDgQKGhkFfT1BVU2Oik09wdXNIZWFkAQEAAIC7AAAAAADhjbWERzuAAJ+BAWJkgSAfQ7Z1Af/////////ngQCjRBiBAACA+4P+Mv8JfDfge7JYrmVlYwiD1h+xHbHVJfwHBSryyliVT6d/h2Uoi6hT1MecEwfSSWcPH01Ko3B4gGx2Zb5ej8YYWOGt22zXadk9gJ9BM8tWtcSEMqGxtBn6BGAOLNzoSfSLtg+Yp8U2NSPqzJ4wQZKAHdqP/ZVLcwQACDPTAb2APKrONQh/agjtsa38Nw8lQUQOEQ+UoWs02hsL4Mn1N8xli5sHPe+W2qAuRNcAyqv3jzvaXZ2HnkxHghFJ5o0TeMgSfUlcG3epJm5TGKCxn8VAAAAAAAAAAA63VWIV2ok77u8AYWSIk6vsL0lQ4o1sRdbM3XNh5Oj749QbnQkm96nsu5EC+cVNtGk3noW9h2IEl3wCbzjpkvUuEyTx/UW5a+DzJmwcfB56kWbpKGiiTsuUWBljqJJBI/cwrFOi5ds0PBOzWs6ZEGm+el9GYw4yBhl3PxqZSezkWsR0SBO5yX2HAJIWr9pg9wsNTOej5MJlToO2WSItcWDNzv1/4FA0sMuVQTIBmjM8GKr1lHX2IE65huLtvGYO0YAHilwX5FnvvGTcrDDPfm4nIAB6cote8zpBpc+vjgPpT115z0uv7RDJ1SWKqCDrU4DkqQd/p2ITDH2Qj3NcWIIgeAz8iaIXB7KGmVxm5S8Kp5/v4N5zyFxZilOxtTzOYCd8tILNfl06Q8HAWh3/eE4urD7t6GO5AUmS7VdUQhKmkZS8viz2cG4UspiZJruTJEv+F/9c95/R1oIP1rB7j0Ehz3rbEfOkeKAzGssU5Bk27ICrIys0p5NZ2J/C6uUoX1okJ3Tvsv3IoUkERmAIYoV4pU7cgFkmwmo9i5N16TIU6gNkpxNBhjRPiiQQ+Hb4OqZlP/j1BwCZ6nngiXyt0eeEYZsuG0FEiSrX8Nit5pgpGe7bJX9HlLqPp9nstih/B1YWOOcQXc0uDiMOt4mujDm88VcLvIJMt0RqY0qyclNGXAE6+0tVzfPe3zJBhGk8Sg5udAIx1hrCyqfUfuCJu51zMABYRalJMwZliNlwJ2zACdJe42KHKUx/0z7QTSW6jWCxoQdBxvZ1I6L8lPwXTtaIfFKaz8ZlJEUfEd46+euJgb5OTVzjCaeJ2e9KhaDEqol2yQ8K+2VcDyD9ZwszWAlqy589kUxGnkoPRijQFQRLPcbKqfM12SY+Ff4RuyorwYbz7gC0tD1HORQKa9CgZd+I/NDijWC4/YUmjwcJ5j/2GkLfwSXqcsTnnxEF3VE+KwSpvlDB/MG7IY80vzujqzY68K8dYo3LC8nTZwTzlXfhzTxc8Vx32B6fiY+QSEKhRpxt5qd5msAnnnrKYdgPgTGtXOvUt0VJ2WtqyqDRet5Hm3R7RL6jihXV7/74pjc3sz6hGo0ZqExDEpOfo0OEgQA8gPuD/Qr8CxeIMht8pu4UXYjx6mCSvokxkmGLUOYVF8XycDdQervBEEM0z3y22oMKvt/2IeUs7WIhyipRDwM74s6uBuUWM1ROhz+FxdgQ7Myu7Vj0qoZaicLR/f/OIt+BiY89BqZc1MQjekjI/QJKuNxmvNuaAPwvZ0Wee30MtjhPU5uQhOaCxGRT3FlP/+uoS29JfPW/3Zew8WxRIUXvosaYCyCZkJnjUVqWyUOECxY/TmtSRn9VCQUMc+SkyFW437Mhv0l3oFzp2CxTgSH/oazUJifg8ftihR1RoMgMkc+PvWDkbDTPfuYdf5CRA+r63vrYbGyUeu7swNl8x5lX5gkzX8tF/gRNHWnQ6fvoYuMYdBd9wlaCyVJsmikToZnwBbNu1TPpMWTZoI2AgukPcHKUbCBOasNJ7Nhu8K3rmgKtDyJpdiXC/tlorI1qeHyjdyWd9R/+kD/hyEfUgLvsuayaOn9XCgHrn9StANf/GENkXuezrVxj/rtMMYOPIcmj/kiNE/ikkp26Oc5YuxQ86f6vI91vl8CVh+y3cilTJsRyxGFPiMrDOYqYh8o4t/pLOziC9L/30uU0jCNWnX5ocoljDWMkcmUqfwqRZ7GdBaPMfOU2CeeMIPlD1d3TMr7391uSL027ogdY3/IWSuBaEQTAH8JMghQBWeDMUnNfdVe9yz3kS81eKZbr5wDYUX9CRScbWzHruNrcu38LmGKbDZMf5xZnQ/RPXuw+7QNq9oboQ3OWYfLIS2QqwoLpIdnGFOcc9dnJkpc9wka0LYHEqpzIjMGFwBqTGk5oqDHj5apRZNv9qHOSYEXYKuKY8rrWPp9h3vx/fc+UAxqZCY79WHlOf/xdSbkXnQdQrjn5AuX50yY/zCFEHyH0ae5OzvtW1ms8osJfsQBoC3/AYIKyV/u/sXlFns3BQUvYl1g8oRnloNqx8kDxGp4JbMYY+qhdUanexgcQI/O4tiVNPl1LavwxUGhWS/wiR57B23SIxB5gCA+dIWxE6CV7X45ZQDODiPbLVkUKEoYYnGVYp9kufUP/eXqtRxE4orhX00eSMBUuunoHe6jkUB+Bdjzmv1HibfwBwK6Bnd6xwhnvHAybNZtEGmGTZEELTiwqBuEEU8ZRoRsPp0NFFPsBUQj+SWeukS1k1gvb5BL3whdLqnpHxQuF3eTid1HDtlUsgKqIw7ewo0PCgQB4gPuD/A/8EUBoqJ6w3aCq8noRcNnIEkM6ahwSnXaHeWtnmkANcjAr5cDs9bMyKCo3mISsHoI9U68hSOhIZIndNUDn0/pO4+yBxie+Nn9i5svXdcjPq2RDTGdIHYQX2+kjrioizu9H3zamUf6zJdwRncCkgHrz8dwXnSieXjcjIKYNqXsc7nfCLheDrTGhwh3TZrjOdWJMet8KxirmC5CnqQ5+hhDuHGfooaeNKMkUaQo+533tJycgMPvy3zb78UifoYMG2KkCS9gcRF4wjeXnys9v8u6hKbj0w51/y+ZlY/3xQUyn2ELIQoYPEGCdAQB3lThP6R1BAi/WzTwyBmKqVy/HNQmNAnslXLRlXyRF3eqY5OzCAdkKT1SKAJZqaxpOc8XdFCS6OvOSekYy4iumqehHHuMSKaVir8d5zrsfMkBarSbUafmM1DuFjCG83jks44gI8RUfl8cICzGzmMkrIGeOkkB7jOKKdFNosRQrCs1JPro5+1FmVozzIFLig/LXU3ck06iFEQXxNaWlXTBhynSXpJsk6vveTeuV2KCUn2JdjVkS0arft9DplyyJbpirdyDmtmEhlqpqLNDAzV7ysqOVVEQ9EKiKUi/gH4DX5Fcj94Zf9HagdDGuNMraw7FBfdDgaGKb9BXM7QHl1xZUHWggHJbV/5SjzDn+ekS85arsHCTkjOoWs17dcPPqngv5LkwxCqVpqGrU7Rv5z4i4NJkOiX6HE5s3gjE3RKIWUfb4+DWv3joTWHhDitgZ+9vXqAT2iXtOPgQnI5qktm4Z49/f+CSAIeeE+qo2GZB6xnda6+XKowxZ87x7zHlATaAbRVmw3IjOt+kv0pjVGYyfU7aNN69jGHGLYEIF+TMnTdns3CuhRpOfyh4wekoUtFPvvE3ToBsewzMcA4nOny0uxSyvv9fVPFo+afjl6zDSdbSi+oD1/Ta8h37yBONvjcZynTj8wbnGFWMSjKaE27+Z0F6KoCAjfr/XvFMvRn7WF3bcAw4EG7Ou7ml79NczBfBV8pDO6T5HixGbG0whELS1b8Df3vg+yAhxg/K/SmZHYXwjSAC6eZ4oOVkqWO2Wmp8CiksJ9GcZtIB2u1EME/Pi0yLWP+Yc+6F6E67f05B/rdHOWEB4kQwqYmCmsQBGeVBaEKBuRLf+9JjosKflkaEu4o0WEkOzTPR6JTPeIVCv8fk1vrxkOyYHtkkzAzohgg4LVn9Mo7pgq8lzuMh+K+ePsu9lqr5d91g6kc80bn3GYV6vkbKyYO1LSfqKcVYiFiujQ8aBALSA+wNZw15XkuETN1zWM6MU5ZCGos9IS7t8g7MJGWPmFeeIl32/25WMYll0AAhCUY28wLkWBx4NwW3cCYWJQBYGaKvGFanPcjf/12msuPTs7pcLx3acoD7wwm/Y9tkFpdAqACDBAaqovNEfzQAt+EcKpqjaxI9x8NE+bXxuUyz3GVOMFoihT/8DR3CpVurVBh+TCwsGHuBBbHQaXvSz5Ppf0zBtJOQK0EF3uTXmBp1kBcwrbG42biTO9Lhn6nVSXRseAENY6hmvDjRHlS3fxXeFo13/q5AA2sR9b3+pt+xLTBeYt21j+lBTjICy7iJPCHapjQ2QuoU73Em2MEcOTL1CKPpKRCsHFogSSivVnuKwJNqsrcGaP2eUFZZ2uesnP76kr7LAAkGEEq5CsgZyGz9geNB525cZuyN58DrZzyC8NPg7zlFv8p5bjpOauwxKGakVh5yiPQ8FhECHGLu/7CzUOjNAceyuyfRrdo3kaRhLCvdVK7rwd/5EMyPSSQAIoGQgJaRR/PZBzKSpruhRMDnXG2GPooGHY036u/hmrRNB/FQBXUxpHSaYERP3wC7yutQl5bOJXA9FkQqcveZ3cSHJT8f2guQ96CjgL68CV536afR9T+RmiFp52l2vndFY6igmjoSZmcALI1bWFr8KQWhnQo/J0XKUzPOBCyoMrrwTPSVB9RCBY1OgFFwajhpyfPa95B2EIsD6K0CWc5KBhjHXSo07mI08ndkH/jw/JR1Yj+/rsCPvoCsOqwOzD0v9RPo2EWUhi1+b5FmsHSDaWufRxPenjSmKzDCBndN0F0suqy+Z+VWN6aVJCfFyMSUkajYmmZz70jmkkYmDxfd0wZ4UqIkYRQEVlU/pepxA+2rAKlz/RVNgD8R6w3OA4UkChDkK3zWH38R7PlS2KZIsm+rq67OAiHJlqnIbSqLy2mFrJU3NxdScztOvx5zmylaPqglMVbnFJgeJfxme6u6eLr8Wt3z4jGMzQ3uaPHCbOKgnS1leDKIVyVFs+b1Fgyb6m6RTxh3vWRzJfRbCosHzG7ZOwAFw+lLeIJyay9FhfasFdf2yngMJNnuyZPETO2IgptpkNcIdu3/yNA3uPRBKJh9QZmZz+u/+Gt7qiNsQ7PfFZz1hMrR9o+kSGHMOwBH0Vf1JX3cDm+QD1iqrrK1V3LteXOsppd7WfzAWLi7lSWkJ6Qg/oN9+XVGIoo+FzDRkwi6IYyQPmpHGz9wRSG32ceRZSrN138n7P+b3eiTdiTsnz6i46ogUQVoXVBcXxNjPSuPHyvCjQ8aBAPCA+wNRf0XqdpimDjMviRHHR52GOaI6GUvfzBJWAjPRupfuWL9e2QcI9sgTkxXwPObQ4ZYGLC4RlEgnW8jlVeezzI2RA119WM/wxSWUQ6YTCCHL+ubvtjlmtFaEBO4MGxhdVYTPOL+0nja3ivol0UbXPXSb3Sk3l/dwsy+8Keky9zKUQCCks2Hcf3qZDJ4PgqLquxFN2x5PXUwoPeViyP9OafWbyO4JnBbA2r4QubCrlXBWZrnWbpggJ1OCnUtf8fij2eFNxFxQ5oHtw4Eb63qI7jcmx/kbXbSD609fySRmnn+kvSWG9rrBjNxacYwYfNf35pu/iqbU29WPiBIm2/17zmri24Nq3r64KnC5fOmLcXHYR1BCoe33jCd7E0+bIEpzppaKalaWHudDut90OPwJFpZNzw/5KrDsYCkV8Ero5AaWvFpEkT3Qc85yI2MuwmKqyd7KE0+XQQ/r/w8XnxAUjrMWX0dxUTcF3JTCmWEmqYSCwLzWKmNH5tPNk3W9ekJ0QrQNADQYQDVYd4Ns4ejnWyBQpuUfQCG2f7QyF5ArMWgAN2kS6my6RDlUu+raiH0ZMJVNQBu89gcRy9FF0wlvN2TWoIcXbBN8L1EbpXSYwU8JnHrC8Jr47/5cP5FSiTDo0/E450nWXbk5hMh5VVoNcmAL7AO0M2eLDqdoQf/5z4L3etEXYygJxtmLeIrYv/AGmeMrfuQDShwHjcp/1OXVVSqrrkXt6sZ8NcyC9hvJxTIMRBg/bAC81BEQDlKxZcUFLf9RdJpa0tPm+MFyCjNCJ8VUt+gbneUilBe+obY46zy9RyR/1D/FuJ61aODY5iBx21kiw54J6GQ/pdlapqBy6R+/Uamqztp0vO1SwNUppk8rBGtHPnJFzUk1SpctTu+B9R3CQDukZtUO0SMVJivn6aI1js6jMpY1EkvGYleqS7t5FygmvJcC5FrfV+Di7iNd3NvYVHtJLBlTskIe4VNqn259hJstVRKXv6koe/0rpavhnCkHFQgiJA5ktCil0kX5ZEBu0jLzDvk4H1i6qdJ4O+ztvzub8dP6+Q+xwVp7n8fO5cTnkSnhT/sURS247iw5MZQCOF9C3sPDIsjJAG6ZUJLBkISSWpLar1txj81h0tuc5l9i36vLJ4kkxumsbRA7hpWSGi725XKKFyeRVG8ZZNnPNCDLT+kip+oKQAULq+9Kk346TyX6FdbFWcUGDGmpVIw3luH/XG5/Jo9hgx9D6LmjojmiH5+TGV05yoRWlw7dLtkWwbQJ0D0n+IHqCRLiaNujQ8aBASyA+wNTwoG6QnJCyh7cA7T1MeEV3f89vIuLGEP0UEdYck8fSAE5yJIdPqnPy3l+N585GoGnwYxoZZWzlltNG+UHcUvrxOlzkHUUi+gsMbqV4oqTBcanFXLdQJApY6LVqDsVKqn7BFYEJI3BKFFNLjNybyoYmg47U+ENFn6x3p68NC6G96hEJR1Z5QTKWg8PVjQj9/iUtvQBfCCqAySbWBKE2Oc4e7PGRkUF1i9NiAkh73BO3+hoKl8/j7Pbr4sHBtnmSFObQTnx5IR7Yvz4Am2lhuOYusrCy45Z11kXJb6DRuyhOTH6QC4Qqc869A7fLNDuSJBXdPcbOkhStaHfRdEGoyVC2/ti+RWncrVPWEa20TNeN9xT4fAJ4276UMGvDFg0z8+nd/d9KJJqHSfYCxYhLLyw0jhHGyUee4OVu9AkNKUiG1lFcnxAePbiWWkqBu7YeMt6XbErLViFDc3BmvE6MAvAx85vV97NlXGBH0PgFmNvSORSF2tBPTdlCTGknRqGSesEjeSHzHUvBuNkq8nlv0kBacLqB1CWnYq3yqlsfc51m8ftWB8IvcXe74bTE1fO7RJ7V5I0+j2Ci5gEba170+4DF682ZQFWPq3hUFMrH4CdPZr2fSKthHr0RaNzgmxAbPDLPx6dSztj4lyFkQMkT6SfJMjST59ToHRtbr0sVJ4msPW2UeRUifd0O04knH0nB5ZQmJw6QQzsPbzxoGyW99wrhipKk+OyaJpsSFOla1ek/8SoV7Ai5f9Oi4r4B8efmSZzPpKKqv3xpyWccZngrKlCrKL5mFWBoXMozVdIDzhHTxhLwkNC74yRKSqMsP+tLoMiY+wlMGVsk+MQznYAVwClWjDneQ7eqxPGghWV0Ff4i3QmWjXTypwDZrKdBgGho9fTk1x/hn1C4BXMZ9myX9efdGUMcd4Ch/saXNLtCcFqt6fOR7nJ7Heu8aMD1Qvfu9eovfFnvVtUTj/W+YBkSA+QKAFqHYbjOdDqI1SCm9kvVV1lDwLhECoIkDAkVJTN0aTxtoQx0/Gbc78x5gnoGP6DZYuG0lv2TfBnW6eGNPMj+pFFEZmbZtqnF0bSUNLNPGRDnvc0WrlAvgm2atjFuuqJkDGVN5sv07GGwAhq/i0B4iUONxBRpW42ODX71jkfOXlj2ermKvC4DKuuzjJojvTlGpGhQmgjkIKyVhjR4sMqXLQW23w/EuxyGqMYzWormpwT4YoTaDXCR6i1FFJ7A+Dr9JzKvEnQBwfkw9C9XZ1LPq0nVjr4LK2WhbwI1E6c8PujQ8aBAWiA+wNR/uJrEy7wHdeVqgJhcmESIekSOwmN+IvTEb5vC8smyTG+y3ZsMS90XoU0uNwoeULef/XWxyFNRb/uSDwFxvmre0+jyNRx/igHjIJMHTXwYNGlwTMVARXEE7GnNyMzzpSS3EHwiJkaJIVuneRFE1ki5E2XysxBF92NcdQPBwdsJ25d4TVfaHIjXD84U1Cs8kjM13BuxPc+CO2IpZoYaQS1bWL0QwxQ/PUiOGKGJ2WSgcK/CA6pW46AEjUtOeROJTCdKvLyA+BuYKv2cUc5GEaX9FBag2v1rASdZryHU6i9gmGFGA5DuLbn7o7I0MgKNlWdIgjHb7YFDVLZy1WQeLvUchDu8slA22bYtm3GYLLuhM9qnaer2PkCUYu1biMFjg2m1l0ae80Hy4PnGX0pK/KnEnwGB/0jvhB+RZAzaNCLc1O1j5lNC2vjGfzIEWT5o3OqqGHOShu+ccw/8hnrv2HMmTAScQOZ8WkFlUPt9ufDHxGsGfmli+7Ztb39R+JfgBDDjE3n8BTqlzmPdvPV0SnYdJ0fD/fHCtJPY6nHEoGg0dHBMAQYfixdEagaNDspDqiQrqiXTrhH9lw5ArLhVtuTZI7+EDzlYG3KrdpkyvFIG92UHopHJgAzr5nfMnbSyIPT/Cg+fdSXuAPCIRwZjzKrE+4QNjL0Rw7XpUf9747axjLD6A8FULUtOneyMc6SfGHC2JfZ77VDK+2Gf8GlzFlWGXfggzabm8lAzohOlQjo1jLk8YqZAAx3PGpJvAOczwFT0rm/WRIdx2ukyFHlj41bEWPUWp/JIOAxfqUisBG3Q0NHR9v7xJCCiPEJX0fRFhSAgShf49FxAqdyzguZmB9qUKb2awovPRts+srsnlj6Cc3eYyrEVZ4CnlKTwThvpqt69PtbuGB4ftwuqly/hjeOf0JGCGWcuMyaGeR6wSroVy02GHgufl+05b8D3yGd+FIMCvSh5x+lUHZ/1Z8fRo09btshzVxzsE1a8Nu07FCWla6VTvJHng3YAfdPhqcReBx3ruVG3voBut+h9cgpWC4ZLDqVHv22M7TMIrUFVvGqMf56CA3XFP13wizvrlyymwhkWlYCq3YCMgSvgmXaxvhHCWf75cWWHxtLLL8veNbbxxe7mskd9rrOZmEH9in2pZ6vVXPk6ZmWdwHJaLTU8q2k8L4h0Lm+k9U/724plDNXTQ/L97aX18e7u0Fb6Cg7YggF/STkCTizgRc4324lmAYR4Ufzi/KsoMnLMwr/lzBbT29+lc++unim2U3P7BZNHoujQ8aBAaSA+wNR6WujBr0y5Duaavni9uZQ/wkCav41XBfsy6PpEmJPSwOq1242XCmxVTVnOrgcs7yTbnoAvFYmnD81+xrwhQToLwQDIZuiXO0loYGu0zNLqT3+qrwLK3s/6f1SJNgBOGSA/206pOyO4BsPPdNvrPQQGl3ZdrJkgW5MJIjYUAVlXhIZC1BJhIPJIvoNUkiFz2INpFDcoNwlbAXXY+3kC3S1iu2dOB357Fky2NCzLFCDDiCiSM6AGFJJqCkTAR0KRO2Ivf1HS0jqUu3GAsWLHj4NRgKQgvaxjOnYShq3Ta/ztBlFxQqdeAzAkhu5tpl7N4lez9XAYGKQUfyJDaCn/Ay5qVIefDy4u6K2XLkdYwQ2PJKrUxl6A5V+yd0oIt+w/dKakyvfTV2Xw8GCUVlCdQeiFcF6mvpIi/Ggm+iarFPT0Vm9ZREIEKVW60Fhi64LUVRwh4Ky8vYIRK9sdKy3D4grVa/ulj46uDwbbd+JFw9IBV+13ktg83/BmW0wngnw9jaUrJDnDl5YlU+btRJl9HP2cO2G2hPezyIfKXvqwCHsiy9B8WBOn0g8qxkNh3EzewlpwPaQ8gwSBr/jnWDPgjjM32fLJfF6DWeb+2n4B9HoFJ8GhaOo7gRZ9GZ6HfRJdcs8lK4Ez5kUE9Jz5wA1FdrbUEXZN0LlkMJHiUHXqbUcwkFa5KfvLQ8ToaIruqQTNkrqW7Sggi2uji+YdlN85VTM0DyeV226IXNZo4EqPO1DQ8mzCLGkJmZUxLeOilh45C4Ptfehm8ijH778TaXuAbelTh2dUBtOFumO2AcMc0mER4tWZ4cQVhhjrFDKFlMB0y13GD/aRGbWAy3MReZmmM0MUfKBiLLt9qLbeEHOlDkWDwapQ9k7DS9k3J8xNarxQACM8r1beCq80iyRRa/M/PGWoaj/SQtmHqFEDGfcEccN7wVE5vLnUxzEtN+zFuc9OVieNQYtK2boj9Q3WmEgec2ujRWZaHcIy0SbFxs51Akj/zNrpbRlvOBES/F6wouSpY8ygOZzovdF+e1MwrFjP3v8/+VidbOtGWFxpvU2R2C+wRzujLhNDwNos/63i25/zUzhK/U82ZFcaRI6mpYgDjUa8YNfjrIYmVC+Di46AD4ZtX9g4PdWQ5aUQSooEGXfquaid1QWIBHnfx4UZR/ogeSDKl7mCw/y3/gRKf2lgA2U7q64vbldvAnPVs5nM9DGGQGdVRniveK1gG4zPTh6o1cuMVMFE9sOUej+2//Gz5TkuHyzhrmPtHiTtdr480Snf4qjQ8aBAeCA+wNR/GmBvS1ZtefTAivq+A1L8porWuAnk3XBC0I+ZAOEV3CieNCtGgfX7Ki537AtxLKe7wac6nVizCT46Zmk/pb/S38hC+TCuye98wXk4mdUwOc3zEr0gajdsxgYPWL/MHqPsnzi5EI37VduMIKD4gDnafO1YTy0hKYNpVJXxVrCBmJxuvmZN6sKYzLtOrSF0QNPSXHT2cI3Bje+jUZsRw6VuF4muYA+ACqPspHyDBFwsiAXZG9BBaiAvETiMl22McHKRksgn06cljysCDNw0OTPrqdhzxQVoLd8ctzHePK9QrNvwy3kaWpajTFSibl7i32OZraa0yV4XpU0x1TIhi9eYpkAGw9ml+dwny4O5xHroty8Dw+aw7jNUQWP+21zHJXgbv4Ya5y3SpPazyyLmGDCyu19BWRYjhKw7bbapyRe6FPrOSv5PlGg3dQBmk58QtLuiqm9IFlDBYz11KB/ngBRfbSuCc9KLnSybtU7AVP5T83ijHdzCCyA1pSCXv+8KjWXh7pLmfwaELSYD90O/dQuN2VQHb3j24AA8gXx1vOuYbDL9R8powZjNdgKTx5TZzJRBwxs9usIgGxR4Gzg5FojTUhwNOBVaZ/qfEtIDLucVQocqiQFv77YZIc+Iel4GC1bSu2Zupo2G4h7rI/s36QKcIpZn9KEJeZE0N0aqS9MLQ8eJRxN5aFYVIjJ0g0p/C6kDmOcZkNMUdyhAvQYwuUUjA5ZAifYsvxmw8FbhxebjU5kfUNl8mPEhiLZ2akenzh/XAGAvFcCbnnkBik5puZgoAdZJh6Qrf/BWzMxBQNiXNFd8GhmfmYIUfYxZKVHkuPFmuPC/wmAAbGAci7mi5C8WlePc2qOGCjwZ5CPbt0SmbzjJljDXzMkVFdhQm7e+xa/rUN4oEQ8jQqxykqpSlwSP1kML0cxykW5OVE4+B8JvoYnOfx82Uy7veXTPc/zqoqKFwlcezkaNECS9LzgFYvi5wQM8E+MTQmGpbAop4I+wO6ut0YcFqkEEtqWixkTcCWdMLoHJGr5zOlcf/bmtVAiUNA7GjL1XAq76Cqy+oTpZJJgNyfRJps6u360+MXiXIPWpTZf1tDiE9hhU6V/HbMcLGYPBD6gSUynI+8WqF2LGPpIIUqN0lvCkQ79kFrUNOPXhmXBpSKVKKMj5Cz1ijpEPpm+rjrOS8/aPrRQXnL4UcFtUJLAg8P7jShM9GzBSpO1QBstOZznTACUz6gmFcV7c47ZNGZ6xCb/AaGCRYd7+t+UoqCQrQyCg/uJvUYd0X+jQ8aBAhuA+wNR/R3kinxpvzH+V2546ZDF0/iag8e4kTxVtOQEQnUHP2rlblK33bQDo8mip5hDEIYMeVv8pt2hNkDpLbsMKvYMJMIW5iNJE+vh2HKHk687F/XlzgEsoKCIZ1t9owAyRu6mIyMcDJhi9mXZHERHFs6hgGxCpHmg2bVNmYl5JgBAYl3KbTpIuMMDOOx/BlIuN6+4vkuwzabOJS4aV0wJLi88eJgQk7JNjczH1bBz6Fsu6kryX2TAC1kOFV8mJrtHFgU5AItugfQaRTOfRPK4csPbQKNhZOV9Jlh7CTCLj1pDP9uULLlaE+YRJhuJDCoBxiHydE/d6smywd39FhKFt+X4cJC/AJkdp9EJ6b5ZiR6dimW9k823SwYa3ACeQlpLZ++mRYRsEBBitTbLQysyIvgT2oAXsYY44hKyasn2ISzZm1pvRM4z8Z8ZoSUiVtfYyJKaC8hepAkN4xwMvFt5ki5V0A0S1vT6O0Rtv8inRnCeVhJDffEYdt4or32mGdY9BSZtOsFpuG6Ec78jwIza4onVN6AZAmcW/MZcyGIvFBK3mmeROicZCXyFFoMuGkGS/tG/qFKRWwes/Q6P3zsBlZBuYmehspys11gHT05lHkm3Qw0MOpZLbMQYgMc+F/taqndtnVyAI2GqGx2z768bUCV7MxbLZkMAoQ53cjxjOypKZ1ZHpUfug2q1jlPM9Ty4JHbQZy+xslR8d7IwsU8fRcbtL9JzK23+q8xcoqv1SD3T39G1TxuCnMnuOvKPLnx3JyOQTSNwWsCkZBBXSMfciCnk+ormuXGg8bVLwud1VZJlO+9XujsIgdYjvlG+nzFHaOGk35+0IqKMhKDiKE35uSXsWaKShN3G/t8tZEwWxzSwAQv9B8l/BDkWpYv+COj3daftiqudDvMQXlKFb0QuEpjjs1oOHqf30MH6JagOEe11ELHH+iYjiLXisUmCQ60HYkCHzCSCs5SQPRNpwI3xxwtQ1byi5kSPC5b2PnYTGEG9TsbT6M0/Beioo5xU4wCpxql1tACgSojutP0YgCs1JOxXbAsNodf44V1mzOYN9D1QrFJMHNE3OJknLR812u5xvGy2VHBqyubWtq+fUVR11+iDKur8ZeoSIpgWbW9o3SWxWWKtPaGSXNM7uJM4iIvsEA0Fd72mkGMSqaas3UfysxUiAoSe7xoMl3CJpCZclJPm1YZ6hpm7/Ofp1hPDSgL0bhKwku5f9xHKleJNQzYSKdVa8wJwPRH11faxk0PVUCOlz78nYJ8zJJtwlwvGAsbTax+jQ8aBAliA+wNR60+Nh7fUsGwj2h8RJzLTKnXk7n5oOhEbnoC3jLcpvdakOb4bXcYm8dqZdpsmUGeO8DHIIdTtwftC3qtXHICB5JptgKI0WX7NZav2+BB9iXdtKu9h8qRmaEiElKKeJ6/DGfsnVPpLxOfpDSWhljZZaB+aMVUHtNEh4zOre+Wqg23CWWCDuZNoGLpEftYS9LpP+hEk82q2O7swX9Ev7L7Hoga5bE9xRIn1hqvP/uTEPGh5DjlSjFn9uPurua6rezk1l/K8LO5iKvpR3vPvfYjmpAI96xmIbQ+AkLRIbBrAkZLBP0nhy6UVYLNuQVTbIvoZT3HcN211xjV2S7ipbfFudHz7KW83ZDdEPWRxtVnjSGaAA1g0mRHnfZ7QJ+UqH9Ny7vxa1WF0hPPQVjegt+EVI6UZhNtWupKNf3OtFLPT4lH+qOZODvSQffbHW7bO29QTNBoGqQNUR5SE3Im3d5EZqN9Ps0iRvCV1VbGqDRwawRGiz/y5H5gs1K6y6rUaA6W7qcp7ulInDG03/6J4hZdqHbUX8qPsWlz3+dZE335po0s68hBVqt4K703wdUJVStP9/APIe0L9/k1zA3Z6ynjSyPtJg3aZ/1vC71/ZJ56xbz52XQzGu3mr8IyKO8zonJZWqS2pwrCMIlRRioDc9JN47q0lniR7IPh7Z4AyeEgVjQGCOw70+tMlMxP1ah7zLgiVb00b0vx15wXX2YgW85lVwkcRFjWZLAmuf3CkbWp26ZEKpVNSsp5PPaetecDxekmjHUVVmrT5wt/cBpg67A+jjpi3RnMRO+oOgfxUxPrhBfdKE3h/fyn85gJROAnk7mjV/28aUzFug6L8ndb/Lp0LUbxnwlNiDBRFFAwjN4lIy0u8BBFTIStm0lRwW7gnPbS6ZUl9a83FOvp4ThdemgUOUY1ijV2xJvo0UxjMD0+BT+ZghnZEB0RG46JFMboCWfE9Z9ppwYDhyKzEnMRje/iyYkmQrxvx4fHwNPs45uGf23GYnhL/mdxmNhbtGsR2yUfetPmyCppZZcwYQLQ74pHoJ5/zC3VZL3P66JddX0MQDjWcMtQFHF4UroeOXt3/eu16sRl6YIzyO6Rhswfxw9P1TOH3lJKvaQB4MJk4zG2g4i49CQpajhbIaEPh5QclzS/il627Pj5ujbYmPgi9+wdf+4Jcv4pNEL6kxHza5bZDYadV/ZN5QQcAJl7ey14UzBJiEoeBUUrZh/ic7LwBXkqrCZmkZsFZpTHXYihDktLkFxGnw1Ev9tmUyiBfrPMJolejQ8aBApSA+wNaTxnx7Q8ora6FcR2DxrivVAWzQbxzFWVNKL9xn5LcOdGAKKecjdsC8NBrcX9LCIwRQ3Ibtq8Z+n60V9mOndwNGUfu6ehny7L4uwHI/lmQQ+vqqD4wLh3gubMjLfA07MQzIOXQU2/tKeXqfQJHeMbAZ1L8nGQqFVznCGXSYtBhzvxOBVYrShHn2ga1rLWI0k9iHZbhDPi/UbQK85OiYQigIfXq536KAv2AoUQcTnJs9cvRGG4QVKusfQ0DOld4CCGoO/OyAyt+FMQH55EoDzUyMN75ZP2+iQY3ySZhtNRNYr9/mQu68mjfFbgi4Q3aQsrsxt4Eb382GUF8ZFZU6r+gk6C9Jh1V5xywlInynKLVJ88sUHp7Ze/wEjHHvzqYoCd3IDNrQWzpEJ8lBkSKLrR1uewGp2KQcW9+5u3fSopTL1HrDGjuLrcndJjcHIfO0Mcgc5+UkNPl8cL7CYZpRWlAwIEPqU/vYm6NVfmLfiUZqSnp0wOefMpkXkkE/mxSyCrxtXQNPAISGOp1zViAV5RozgVzzrKgDytzChVLexIw0K2ou120rwKTr2PvHqv3q97iPeM16wvjne0igdkoo9OvXZYxLGMDTWZhwyBRZ5uWnJ6Mr3re5W3QAv1isKOa/Myg/wpwPvNnj/T3OuQDuq6fYe1sdXVej/x6tnJjFIY/au4abPCLzWfkTbICVi7JhOSPtR8vWjIWNLyOawh9udSt5aG1UXVQbXXpTDpUy8klXeaMODoDt5euuuSXQyh5RZHbEwxyU43RG6Yn241z8H1hwTCp9C5hca4CTeTEmCz1jmb1zj2bC1SBzYW2iWLoXXzjgca+k199EsUgxpZEHsFbWhDn+H/XimaYPH4n46LoP/jGPuLTABK4rPkBtG9JOZYXziAs34n+QL18MmCHIti3SoojYqdyyUwhtZvZqTDSze4libhxoGkVlJpHc+AClGKOwHUXFUDBVnMfLRq+BN75Gjm+UymTEbxeHnBCvZ6N+KOQMV1AydGq+eDQvuaWvn8QBN6LCZ+Y/Bl1m6yiFrkxZVgTw0amjMEGDhD+3OxPCx3p14Eyy/fehBNGW25TpBQt6woVVBEAUQqKM9gmoFK8bK/BGPzoARrKDhM6LsWb16ktQ06rd6pUO2fd2D+Nb80DyYXh4yCHZiruKlHieZEM05XGogPxxmNxJO+nEXp1iQiT63slX6yt66N8oUrqRQ6lH/adEz+V1do1ERS0zQpkww+8BuIuz9gFq7CSsjP3IzOaIG1pDxQTUoTIQ3SvSYCjQ8aBAtCA+wNRraPwj8HIiZQCUaheqrexm9Cab1LmrLjkGt2YVQsNDKexOgF+/OBfOcw4SKKkRPtSpBvTdMPqIPsvucpCtTXiGldbb3D06jofFYso8OmIHUF+1HDefrPjhgVooAANs2qgo01l84ogE2XH6Z1712qx7hjy2jofR8/uByRgovoOBE1xm1g+sJp80Zk1adog6c/5asQJgtcgp/4Qq4e5wJuHtalqh8QI/FWejsr4s37imbPHEt6s0x4j4f7hIN4vOct2504nlpp8NJYaSJi/eIz5tFrm8vzUx0OWVVSVAAxwTHR/JdLeA45I9Ep7Gw0NJ+Yowf0eDg7UrHG9owWjJTQ41UAdAiffDjZu/x95kCqwklPJ247uaGCtALVZ9LK+SenR5VaxFWEUXt273JC+i8U6KiElkKII8ONR+wKrZQ/8GFOwNzM8c2+Qfa8e3ycrU53/Z7ob/ma7o40dHVCRYtgaI5Fy5JSjgxzfbK0zKqKosYf3BxpYda7n69VV0TwNHIfQQBDXNR2GzJXJrrK7McXlnbqFRkWrAp1vUSopudGciaGi7oMLdzOeQ3Nlq3L6F+CRaXqjmrQJ/mHt0CPWtl/5T0fyIpNywtLLV+k/NuMW+XokWdJIkoOBRm5GQzrf/HvZgM0S0S1xl11mbM5GBBbiZqv4JcxuQVyQ3iGjU3JbIAlIS4kSMVczre5fxF+mvSXothbbPzHx3bS1aIszUEYIu8ioFde/TRJistRIAlDtng6Px61mw6xR04EDxaxZou4zEUEDGaQlQTpagMmu68yENUp5CwIsfJ9EP64BXC6I3WsBqkeS2tFmb0O3X/YuT8pbP1894HyHAoMamcDRqCopUesUqclP/I8r3AnI2+fP96PEqL1umCHFUb3tLf4lVZmFGkneqq5VLHZAT7hlws9Jggi1HqRviDvOlH58TjbWOFiD+3SDQGHnym/3j54gci6bWav54KmF1OwjOAnt67Mhk3sVbmpmnDDPO6vj9wJJhekSmHPmxwDnFDLMh1VigoQqsEMiVDoZlN3wz9+PZ2HaYyb1cnkCSBUQtZF0uzoB0lTtD/S26wmfmL9Nu4SREN/fHhvsQN2UB6ieqzVHJQ92+ad9Ts4vOj6S+ZrfBapRUbXkCMFQZPRkuEopsy5jruQIlrhZ5O77ASXsv2dnZbICQQbweYBEAPX+hY2EVUaSqX9b0F1I8fn9n/L/46yf7pivavQtRrQH9perOG91BpR7/zENRDbGfneoSj2ysyzyRa5K3xA1g1kCuBGNTqEu+wKjQ8aBAwyA+wNZUPC/zmbSzviWzOol/HrP8f19J/1FQVWZyuIFHJSW7OcJptZDT35OrqJgdvmqsKiTMN1m6vqS68qYKfHC81yIP5wrCoAJQF+Dhv6LJlZag2c0CrI653ZoqccdCyGZ2EkTqMou8xDoCj9aLaf8AX90fXYfV7yPP3HGUaPk8mplN9pV1YX3b2rWbp61ioob70gK5Sx6bhTnFbYtkjzGa17QP04MZYjtSoDi6Irn5mK7TPK4aUSpTqS/5DbOgaOMLdNFILcJuoTJBXsKI8j/Gaf2uqsjZ2eV1IwRwhIZKpPUGmfhrI/tZi7To8zkN5bY1aydevys5UHk405lh+M5u73t876KYxchkomt+85AXlNMXfgbtwKLOSz99o2IXQxIR92jrrlCSkerQwtq33K/megZLIDM2v5Q54GOqoW+ETeGW1O/KRqBMx0xB70B+b+HYu/7o14NbKAJbCgwCcxNwkajOrvfvSozp9zZgtpMN4/CAg9u6LR/vh/cB/+Fpoi4BQv5L02yn4Qrv1JMaIxgIVA/Cu0gjidJ3MYqVvK7SPW4S18lQSAeBYAHNgDpfCPuPO1s20dWpuAWYykUI1DzLeU8oi2zoB/DyWfftcEVLpsQmCTNefldAbSy7UnQzo6lc1sPEHE8t54mKl7DsbCfsKBAqiqYUTIlEtvH0l4GdomS91Ku/qnhshl+JoaxUZf9HAIxk3J/P4jhiJ+bXbpyoEFT5PHU0laWpxIYEgSSyPpgDeRE6xkFSdweKxigSDENsM3XpUudVlSMuaHFln1OQhH2rqAy8NcDoSyqoTxAeIir2cKXKdgAoXjR5yXaRFCNMMu4X1TFs6adkWXaxThVjSo8Ue1vpXtOW7SDvGMPimPp6dLjW2+QXfNBO6yTZZeaENh0SGnFBj4ZyE+iUx/tL7rNF2vVKDcpoW3e+dR50bcJoTZHpnqpit1gs69Wmtcexp1Y5ooRTI7NQHz/io6P9BWxoD3BAk3YXjdJ65hcn1aeaWUyx66jtwrEmJ4ZLRR/YnwSRGnkNO7MqFMkpi9jZjd+ZlNdgLV7SCHwKDz/qUGAA0044shvoz+Hi5jmg8XRkfl6Wfbs7Oo2csA+zFsIFm/WGC3nDA0WrVaei+YLp2uRk+pAye1zIRQ+3DhuPWXxtArGZbDNin+iTyhyJmNbe+ZDXeBDIEh6hUft0KKaMSZbC2gNkHedYW6lFoCawg6OvUy/2JgDSV/3KdyTJm/bY3jIIwF64CCfAD3SDcN2Ci8WhGm8A1Bm+CDzi5yva5a3Ws2jQ8aBA0iA+wNZT2gp1CwQnRqARN7yxaeBXugunjvoFagc7vsOoMDTVjjZ6BKqG5DEmsJCev7ZkR9ljaIzjRf7gejPcmI2y06VAFLsLwVpkJV/7wp0+Mn0FLo5Z977GH/MTgbiZOuOo7tt9vgSbuxLHVEiHQtv7UWvsrZ9qYmlJazKAl+5YJ/yU/rKid9+3WMH+WnzbP0AB9etMFllxnwFK5W96wO0TjWepjjgSZKOEjQ3R9LEoJwLdT+XvOmjMxLcu0K4FrZ5mys6tgcqE7RV4knv/fntwTE0BDuinX1DcngXzNmAN0pjdbbz0TehaXvcuhVaCc+2nO/OXt+8OJRtp1Zfze6pzcNlkjjkVAW9MRzdkKuj/zufmhMQ4fQzB5tGLd586TuPqFNj0pwhx88b47MHjXwAMQ84+8aFWoiDm3K3CiPzJFK3jlGma7LOnShL91iJ7x29vm7zSpCaBljZNFAvsWyem4SmxTwvkm29l7OPkKdGDawgRDPRVE5HPkUr/lgp1+FmIt5+aVoqshRD1oao2DUmifzxABO+2CEvu0cDgWe7/tUNF1avuZ0PZuZyXDoKE0Z1hmBXfMFBZhMhehirnuV4mwcb8dpZR7DcQtwR1PPi1jUmilQ4kKf1lAFwHG95JL2OPGYLk9huhDO1acbIwaGBqLBFWCwF9yMoxtCwz0TZWx5c/2aN6txa1UxSX+PP+PvlzAU+rGh69AEZ/KschWcjvQgEmDcPkEc8wqR1u6WXIGans155Z78tnTX/phpiKA8/vfwUPfDeOM9RHsChbUidpc+shIgn2Mi7oK3TqHK7/GBPPWeALRwMqVka+PYkzBnRBXuYmz9FfVgQFD/WY/gxVRwhUbxYS2UQx+0vNETMor3oywelOnuH2m5JVvsTSfDTbjaMNw7tdQBPQ4GeOmW6iz5eY1Q5jPWjREjrMHF2mkZyNYmKWsjFgAmcMRyVAQ/AmI3MiGFF1Yh1BIbwA6lVd0dWpg5u89QvDN7Nj9bOYDMrZYextuusf2Bu3hhoB6CxY6jPc6YjpteW15HQt767jP/69x0xireWqNotiPe77+55EoOcdOrw6ogzIllNxULlPzci7kPHT5KCvNaE8hQ8tMSexs/nGfihUAEGHRtMopAVyl9l745frPFXMLD7/2b+bMgihxGSpp5KFlygDylJ/qzeMCEc8gZU/sF8hoD10BTh/nwsNRqmhrYyM2wGYpbtxWvyaUTC1AZRqKiFOgh5OZz74EzNK7MjLTE5UfCi8UrobMdk0+UvWonxXptrz9VHBMyjQ8aBA4SA+wNR8nqfDY0i3BIQDOTzVFOW3+/HCG+GIx+ovEMKQ4XjmSExjtIPie2gNTMvO8xkAQEQziiY4BuJyjLeMmfYgR1M876ff/6k5K8ADTgqew15UkrMdBrjVL7+pKIZOaU46Kj19GebuNYx06K+od0STxLypstpkWllvh3VR6YWTWuulEVD3PSy/XwphlsFyV26dTKC5mOm/nysUSb91Zr9z1bzb1BwDg5PbNquNBMDQl7wS8qu2AZ8QF2tYlNzrXUgWsqTgNiIYH5xGMoAgv9IqcZPF+FVILkJRqJPZLAvC5kr0VzqbbTjTK93mExDdiz+oVD7oMX4HR9OvOJaUAwj6HA5L53qAYFIn5JX0O2rt6WmWsn6zj4/EMG3RkLlnpE3Q+lBgUXkuo4PBy97pklJaUEwdYpSWru1mAGguHut14Zbl1rnJvz5U4+hC6aZ64o6g90/Hf/0uNMfB33G0cOL+LSfyo3Rx18Qx5cJEikLrExiGZ2RAHe7trqIQdkKdUKG/49wKrWqQc24nMXgXoVyQk8pvu5Yx3GXJsvb+nf2BMCmINvsDujiwXMxY5wo4z9j7KyivTmPMhSVxHkcxAaL3b44lmX6iPy+bSIGr4ILkDSeFRQk+xYDT74wW0pkfCEYUY59EBy2moIS1sd6F87+XhMg6ZjqOztjQThu4+Wmwi9gbQ2yPtWJx1NQXy5J1QG6C9zKa22AXWTYOmPXXC6VwYEXdNu5361kcLQHo3Yfg9GyxdDU66E8CbJ8QIcm1Meca8Kqb1zfiDjNV7gjYxzC8bc9MQATmIXbsbA9Y70cJKFW20lPrpVknH0BV8QclpENbzfBozU8VNu1dLGZZ9UaXmaFRBasVVPjR6NB50VonVQPkTgAua4ilc5XT4Q7xwvpvtYBl/EonS0i8dKg68DlQR5YNKzoTpkhdhzknFgZBmjAaZYb2QEGXcO7b9Y9zqaOkGvENfXo1PnpkQIDM4aIAM0XFNuQKrs8jf7obvVUh3JOMS9qZLwHjtgE1l4q32eRTKxVrBe4j+l3RL3RlCrwFE1AKnvorGctCkLdlDwLE/neUkLz6OTOcbMqFHoi6c4x4yeT2mcK5/S5uUbXGg/cxkzPgmSrrs/smdpYpRlcXCixfRjA/6kFVRGok7TX7cg3QCRx1YhbxqQmkYEUiY5cv7NVLvJovcTrArOnBueYtCKMfIQKec8F2e7zJzxa2+Brt2QghksyC4LLEkugtlYiTB4ZKCfy493zQbCtK8k3kptEANPFBbJnPLehnEhAdkB/lsqjQ8aBA8CA+wNR8afRm5UdxRpndGyUTX6XCVVfay6lWztFS9NOIsQXhCyrlj6pbTNXvFcmOYh8Zn+7HaymVZQjBcbEOC2vw2Gh0aHtA1Q3ey/kX/+g4SVKcQppKfULe2308pRwOaNXD1xnlMaHJ/GuTAuUdmttabQOpInpoa1tzfN9YDECOSAfAzpXsrs4/XuGE2DfN32HZyfH1CSE3AifHtF3Ct9UFtn5VHXNVoFM8M8DNZvXzkJin3Vvb1ZNucxcOB8iFSbFMVlSHrUWZ81GOeb1005CDt8REOXlh2qsZpm+iYr8D27aIMwSE7UqA9/8B+C3GyqeXBNFyCq6aB2v1xZtOYQblyMDIczczPZbXczID6COcQjKWbDUwr/BbLRhU4Vz93WSPV+6X0UxzpXztQMNr9pdLfyLS7PzUMeSaAOOreZsLXsCHVl3LZGcaUTgm3QiDTpwb4ptuw83y9N3lHmGpnNeBO52VDJkK4dRbS9IDRqhZJZopvTs7xbg3hLEzX6KZ7bj2yTMx1M0Cbt6JQQUXzaeYDTcAa26jDOAlb7OCKIaYwbsM/iloO0MF6PXo+mpHp3LCvqleoMpO1bY575O7yrZRmWb0HNzlyy1jS1MpTEbszOCU0Du/etS7nlwgiRUB/yxG0eHNROGZpAYSeOg3EvS6ZVKjFxZ29s9Ss4KkKHlnNC7YOs1TJMIdoNnL/VTkC67PMvK7+yPgYI3L9icroArOFNuEb7ocHTGmVuIYGA1rRos1Eu661a3uiDt783fqqpVLLlwS5lY9duCMgpaM6ONnk7sFE7P7/w6bKcx2PFLhjZ1PFAJa9NlBc3r1fiICOJbsg8URLjHO9aFlNMgrRG4ZK2fWjEieKVUZgBXT5C5Vojy4yuWwxmCIXYdkXo1jG4cEAr7uTKIaL5aafwzcCheO5jsLeYxYdoHCKQzlYNb+QYa30IUCLfwadm4yqxcSACPnJhhrQP+SvkoCIH4YJOSpzndsYmFNjI/5oHtHj+His1VcpATQQQ0+JRGwTsRxTZrtSARX5CVlwDlpJsxXLYOkRylGaoqV8FZLXjtWoIS/nPZVz0SCJ1Zb5xAJVJVBUMLNqLJ8f6HQ+O3TQUHcrnebl0N8E1x81bD1JAPFWuocSuevGvWeJmorwkQI1hqmkpkoFrkVJyWaDNdtZgge2Epk04lurtHuKknUvFOAIC1jrM4WxcOF0Q4x5hjvYdTAogcC4dcDHn94B1iBBDG8cjYNJL6N3OJNAIpAlcIvp8IznJdy1mww2vCV30UmK/o5gYwOrajQ8aBA/yA+wNRuy9K8B4oeWw4ljua3ogHAfCM2kihPnAwDWJ3cTa3h7K/YSEgpV7A8vmEtrmyd7+KCfhnT5MhxPbwMIJN5JdbsHGFt1VxTfDcajaDV4DjoCRA0AfGWgpKzqX8Xv+5wc5CopbRYHK/YwPGIC0cszvs5FHhZMKENr+Pyvy51FWLgZdNpOWDVVnfFVZhv6I8a5GS7CxIdtLIu0Zz0NSe7AAikcGl4QmdPlzUMbopawXeAifIhS47d+251L4wJA3TAk2GCYB4TV8TALeczs/stFydkampv2d4L1FSUA1Srg96HsIzxbkrSat5O+xjf5Nr6d/f7qmOEN2KzMYnk4A41MqROorY8Tvt/nZ2rvEH6ey5+zrv9X3w8F2BZlIW5mCzxjPY/r/F7MiK9zaJLXMwsc0acJA2C/DmRJGzC3YC+fMaUEQdgNjM4PG4+poda/EqARPLoIJ6bkxVtzkdkihfC3fcLD+zvqANd0VmoqUcfdlEh8Hu7l/cPz56eXcn4Z9/PFxQVAQEHc2SUdKfEn3hCKuJ4w9HfruQcgZgsX/LL+ltAG7i+L+aYmkur/Q30Z2tZfsSLGkxnVwr2QrnotPiU60i6LGKuk9GEo5hjlxeuJolnjC7C/QnJHJHMkonzSn5XauotYfmXfIBSXgbYNSLD1y3RpLeeOXZLPK49GHbnPieopSF1TYS/NeycouO6qZ2Pe8ecOv9nn/NtOqMPEivs8yt1wKAICKFJhfVikmaIVtLTSmm5AuC1V7sQaF7348k1BGcXcRIu/kmtQJ7YzS77vRAb1SAk3z9fOAvDVXT0f5un+7t1MucEeDsVdoDOMI0hQSEaMKbaUAZg8TZkU84p1+YWaOmkkEYiiOIYc/5GRphy8lwnQQ5J+balkiMEgZ/4mANUmZHw+5DsSdKXxj9rcF+hjSND0aH6ZGtNQopsZA6QYKk0u5+halgz9BJ3JW+IovM0spSHDl8Ef80snOwQXVw1p1qU1qct+BQJYMXHrP1mo2Aayv9YglWqXKU4c7k0F6WTOYjcQEa9NxitZtleP4tBVJpZhggmg3uDxiy4v78WjBdtclAX6CnGP3jI21nl589DvVxs/B7KFC8Aup6WOQcIHLeMPO2jcuO9sMg4/uYFy2FQbgnqrmSwnXt2fSJLWCbC8AbTwTKRJi5/Tbmadf1HjJV5l5F92n7rOrsprmyL8q3yuGqcOfJgKrv+YiDKY03KfBJTqn6D0gPn4nNl2uphVw72xFj6b3vtyrlZ3fskNooop1fUQmRT4xB1Yt99k2jQ8aBBDiA+wNRsV7p9O/2u5ZRzB4HUAvyN2NW7H7jSYz+i42JSCtaApulfgZ+EyGlH8p5WSPUYskFYKeuaE5jDI98zK8nCbBLy/2ZGKydANLigdMMeh3C19gKZJSJ8TzPw2zb8dKX6A3LfU3CTmu1c9snRFJDHVBmjMZbnFAaBueI+15sm8RaYSbnqSUsCbX/6wkDDdwo55X5Bt+ilqVyZEApJf6tb6JLwtEbCYs8ckPK7SlprtkDD42mMalF7OWNjjNGklHWEb09+qXi9sSvUbOgd0L8BbBSbcqPWDGm/qDBH3APs3BPBmA/BvRMlh/GHH1ubRyX5Hz4swooC0lj5ehl5AcxkkeoOGzkSYprrEJi93CsZV7XQWab5N0oL60/54l2vxEGpQkywLMw29C310lLARY1GJ71hA5htMq3iYTHos5Jfa1spFPkyepW5OcTq508hwzOdHJeWIPczhNFZrzMIc2LtLqpinJRJQdlBEHnpl+cp/B+ZXjUdjD+FdwlnLFQNJADLnf9ByQ+THZVdd7o43Mm/nags+Nz5YMk/UzSdhIr62IqxkBJ9ucHlVugZIYpPTyXlaB5yyubxkzN4D6Klg96hpDXzjwBDwlhHILnQNV0G+kFBCY2ta2KDgU2oLJTHBaIDIwgsiltgywv2Czwu7BEWDcQGnl+HtYrM9nhRQjp78QKRdC31sc33rHqQE/7SX0aIQY7hPBs0hBA524hhEaM4Ss7ja8cvXwxGIZEeDyJJLrLmxRWmQ73Pj+HScdbhK2nBxufBsesBpPkAqPUnh3RwuNq+9pzofpvzXV8wNyn0lDJaYqO+PRIbe1CYoNsjuOvyPXiXHYOFmP2I9dK0bcsaWglWyLF71ZB4bxqCvLXYmXdoTveW2lCvyZ8rfUe9yXdT/CDYXr88ENzGzpfVFVvG4DSiXWWDer1ejmtZ+Fut4DGQGJWYleU0ZziuUAuoce6qC/RSdqucT4gJLSBbQHNpo/Xp+XMkYGnCaS1tgax1xbpmEYTaS7ql3w//k0XoiBtX37shym6vECRpL0CY5sb84gAcBmFAGd8heUd9BRWqtEE0koza2uGjnDXSrT22GIrxeQqQl0c9m3fKsJk/hhd3ZIjkbrDYjwP5tocxV//oVB4uxKTQJVhhcelzTXzu1DLpM9edfISXGeIlQfjWtsSkBxLdDqqeDF4U9XpbnSxyJbugvSlWK6VQEIitmTtmc2gW4pkM8G4Lv7Q0YuOvqt4hatfSLkfpa31/MJh6tZD2WPXrXBEbXRsmpcFoe+GAEctz8yjQ8aBBHSA+wNTvjsve2OS8awKjnPwZU9MpvjaDvLxx4dCPLRSUrupF1fhdO1ACL1Ei+qu0x9Tx8R1uu8uyiK4TbEV1uOKbqkDgIvwAfXk/sy7htx901j4n5pfZb5szAWkFxKi6xPuXAPUaxhMTvWw9unqZBJZfLVz/sVVs80wgHaQvj7LMWeMz3d0t0Aqj4J6emKk9Y9jiXzhlbiVUhBMev+PsgjdDP7KOsN8VNoqORKscmp/Ftr6mqHJeNWT1uiF6sas3zLtnj4DmYXUem5rzPQrupjVYF0n+Lm4+2n8xtuiShrA3GOdqeUU4VC0vY8Mnz5uiIdGG/0eXdPu6Z7TUrcQLSB2lQoeCF2Vnuz6xpfuqOlu7ed3iQTW6wVjJeniEYU55fLMGDMGnahQCjqg8hms4keb8gX8A5Zh6Q0PZwGA/q430WYsdVFR8i3kESrthITNTkz/A0AgdQFemQqeF/SW4bVjlQbm6VJ6kKDe+BF8iscrWjacZBkWDltp/koWlQvfGUPOWaamu1W8x9ZEzHKEdMg3xPrwG6J5wF8qwpBvBfzuR5f/Gx/CiPPghmVOZyHLx4eE9FX7oZGpWKB+6N2dgUGB7iYKpA+c3RVEUbQ01jA/XpF8nA+ScjkOtRZTfJk3sX6k7e1y9xZL8nXv4xo0DrzdSnvMSrDODXBcUyaT1Zoe3ajlFANk5JnHh/sH10+DAdwP3Xe8iaDZLxxoPmmQOt6PEx2DVk4fv5aIfswEdSoVppnuakJScO/syUBwGA9zB7sExUanTMR+7SakeTkDER7cNsKlOgGZ3suYQaBG3lisLPjceZ4v4W4nMPvrgNhkp9+inToREG+jDdUClJhrilo6WcHmUYm0F3xXwvidmxBRJtncUEnhhtKb8q1HOUx1Uq4SsikkvVwFDSDDfU++5t+RYxTfVs69G+u39k2bN55e1+pNj+3KZFeQgFVi1JWcciLQZ5xCoAaJomq+yYQeMZYW+nJy6hiyxgqpPWpLjpm/xHHlqEP8XCyAZMgny4/BK3eSIpzRLRJSh75GZmSA3/Z+f5i9UNjy0aU8ukq9kje7N5NJ/92YnDkJl5UtFWOfEVgQoMWemjAGqJ1ZZdd26d1uSZfamCOEZeH36Rti6BYmJkCnw7vD/2Nao9/uZTFYSnhgtmES2MGBIBjvn+AoG3WHwaTGTA3Zp0+cevRTLOL+I0b655dr9pTYWexcNcjZrRf2wqRFsISClzaa1pXwb5KFxhv9FZO4KsxWHjVfMyAdY/gcwAN/iDddlV0Dn+Bo0mEZNFqjQ8aBBLCA+wNR7TlhtJvFYSVURCmFNJTuBE5qOmh/rVxwOcXGSW12EjjFeFj9MApF0mWgh0ehjeUEz2EkYq8xamUy+PLqE1qkjKdl3+fSYGUt+PZs+1dWU5sQQiLV6Gmu/V1FX2HET+EM3Fk4y7gBqazf7Vsl9U4hkwqbAe52FNzSs6cmH/OFVUpYUimB9uHr+KHQCuYjIlMzO+emU70l8M4MNi4gkPn5v83mTHonisRnYS3uENxBgqecjyZAvlhEEJF8jTIfUx/GGCxy0Y/S9bELHpEGNhx2j3Wyul815oYZM16jmVsAYkRL8Hk/TdLwkf2MqZFw+XgRuJ/wL218EbEiiu4kqBMAmMq/rlwgPdErMz6iwGDpOtxwhCoc6w3RG/Arq6btuAohr/0FUE8aasKWnpTfUx7aHtL9KCe1BCa1QYjSNt35mVO1yX+DhgUZtBeQaHaJLBdifnrupNNO7dbxqg2O7Nk6yF54bLtW2AxX6n3hATc1WTnETqy2Y9XXOm0np5SIO414UlNDBSv3Kv5Z0nxgHPfOGsihKEaDNOF3Y4cqOm0OoVRokGrX3ZpkpcbOzAPq3TBofrg8/HtzIbei+e8XOccCVBB2ZSAXi44SgCAnv1jg/cG2FWwCT59J67C2gvSWU09ybsPxQh0eGM6QuhZsUaFS3Hb2KZ3vadXG+MazpEhDcQtgDSmTn6pMPj8ltnAADA0dFKRrsLOso/f1NFA8STfL3zNHXlKeqvhSWu2SADIXCZ/iYAmAvgZUGjJQSG50YGl4YZnmdHk9fGfpCVUC5A1Y7ISb3aHIg6hjWb24f4F+AUgHXLCiK1v32YDcsjGYA+kdDj3pRGdwgqSt1HlxYoxiWZxFcJhfTfZVqe+kCF9EPd+els9m4ygNUBHgsAKy34F3DD2Gy/Kp27pBF9bZhEizYwKTwwGiQohr9xdUxWSnIIgsB9PRSokVD5zQ6+Q9tnrAs5Ml9wCuXmFiJ9lOjnu+uZSH2CkCQhDhLyk3AtdRWTM4HjkzhbmIgsoye0dR+Om6h1TaMutAErHqm6Lt1ciuGrcMgM/MZHSQOEBFeLqAlyDaEJBs7lRHYLxS3uGm7kXIbt4FdeMk8/cMGbi2FBPgq2zaXVcDwCWoC49Uw8UL+I++jDRNssA/5swfIUT6O/Vrk9pT3i9t47lgQTMqXsfYWm11FaNHqjEh5qel0pPNQggLmbBiLjNPgHCj7ksySlo/WTiTtF8NMOhEpbqWrYcO/6BUB3WWRLNCzyyCvBnT4RFXQHMi/uICn7e+ANpQHt6jQ8aBBOyA+wNTt4PDbNL3HNimLzZENYz6XY4q2+I1lvlR+pvStc1jXUWH61ZZElq0vO4xczRd9GjP30i3lNUEWAFRQUqm2JmczdhXnZkTt160P/DioRcilB6v1yMSkuuM0Uv1TnAGXSF/A2eDuXysggEtZFcLrMMiezEN8m9EGhTl9i+VzmZDvagQFejxU10zit3l17WYf6qKKJ2Ots+u8hQk2gd5TQ2ZieH5A8DEmGYiJl40/ItDUF6FOL5UwRFZnPMS1xwS/BFrLPIIoc4yaRjTMR5jmWgrD2khIpuWyZ+qrpo3/zdgtW30XT8Kb1zGLeqiM0SgW0npCm6x5O9GBzOHJxWYZTVtbKwN3jlYElOVuJy+ppbINcZrd0Sy3/7DsTnEflFkpDBPzL21AMSoK/zCm0Gkvc1qiwd7uBdDOIBcyovT5htVaFJ85WO6VqQ5dzZeS9do1ynFmHCjLG5+hSAHoP/nRR9r7W7I43IMFmGkGXUyRCSzgROlfqMOCj6IZUxTO4Wu9CzpYbyzx450JMwxck+uJIbgzAmnlk/BC8KMLFm3u8Wsg40ZgChDGp2ILcCwmibJXYr9AgPzV+nvfd7p1TPcTD1eciO9tMmzK9n2/Dgw2khsvnentcNgcnnOasCaLWYYFR0fg50iaz6rhdCBfIUlTbWt73BCt/BfBflIlUBlxWLp+Sbby1fgrYctJd/IAkoF4HOPhuMBTUfGRMwMj89GqcCEGZ/rvaiuZsj7DptuVrPFD8xPFe7+G6W8rinvxOH5nNGqZE1kL8Heu79RS5yvpLXX1LpJFQaFR8EUZmClr07dOBaJ6PZnxb+6yBkBlJcSaAROsxujPRM5FJg+gfsh/fF+UJbKz57EQdjty0En47cGrVMDBQwP8has+uuyu7zoVAMD2dcquwxvqV5MxkJxqHDmhEs6wzMPHF1Yhyl6m3+mbQLoKzYeykaA7pJz+clPrSjv9lXbmcwyUT325iZqa1NiRhlbECgONGMlad68r6yGhlNo/bSeMvOreW1zzsfNyM823qPP6gRQd99T+lKw89skCAZGlSFP+JsBSx9bIpuUmUMrwf+WEdxT/7s3UzX/0gEZAyxIgMIZ/B9TrTQj201vtuM6H23E9trOCK4oUCXxf2UzSJUt1blgwRkH1W4NQvNB5F6nLO+yFapGpvdQaJPSrYB8vZvnpM0EV//rbZzuN+w68jceWPUnzIQsV91yBtStZSoQvPOaf73uyt0Hxe1RgGgyqHPeaxruQgatEsqGTPvdqbdSQeWBph3IGFdSv1WjQ8aBBSiA+wMk0D4q5M4a1aHSPvIgw2TsN1pMGATaMhY1pC18xWPwUaCnLmSsMDJEaRxjomLd0jqwW5x+7F07sGGdNFfUP+SPzNNnOhVBrSV7a49Jem2/aUDmxn7ZhPobq/YPsM0HIs2a7h74E/fRiWOxuipTuGCqv7fjsFFO8+kNXxUqAp3DUFdI+HEwdAQwN2ZNixzcydS4n3zZ1jIZQBz776z7eBgg/QAGmYypxLkSydCtby9EfdXktizeaPfr42/r3Lggvh8BB+trAlAX3Z1h+j8TDwegCKQ7ZCfixhBiXZLjPRo/8umr3YZCQm8tZrF5y2zaEkG2mgyab8ulpE3bMWEkKhH4y2MjX69ntZFWIwPeDkCWSr3aMgAKInA2hSCam9sRpO7C9rjWDXAjx/L5Ak1VcxoxA7VEKKJwGEmr+5V+FICFl1J7V7VqAYu3VTrfjHFzNJl9wVbOujyZjh3tvD08pYI6eHVZQKHZPRbQeyqt7yflRjyo1t0B1zuTC+esXxrhFm8Z+AzEm6YJndiU9Rq/wd6RgyjRynmGmEnZ8PKTmAqzS20JM2sZYJ3hYHTRfuwv7PTrqpXJv7xDKKfLVLFX78+erJhw5olcGirxaLV7qY7fnNR5krrYC3w1OMlBucr6Z8rsEYxNc4Vlo/3Qkqh3nbYY/ZZ0gx//GAhSLl5GSu/X+ufK92JjO1U1+ZtXq62WAo+NapO9mORupYDCiqSz7BsHfI3Lzb0c6NTXujQWoEfKP7U82a95AmOe+76urFW+OSuR3SHZsAvkm9TYJM7wgGpZINpRqO87pI1cYvRbskfltENfP9RJ/eG15FVThWiAtZIdKJJTI1TbBelBrkEjCW3lU7RO3XuyXpAgYZSTFaINQrb9Zsm3Q5VfsuKMA3L+hF61qpJ+VG1Kh4mJjxi+lmW2bYVFhLb/YvXcnjcQFTYiDqK5zVWOyHQzgotBWFc9QmwXRFre4lzUgX2tjZnDr8/FnVYVMaAWQmSl0h2FuKD1beLOEVj8BDQraT0R3B1IHgCsJGAHL6HRFtO4mRUewRkvOib9KvTP7GxQt13xDGEcM4Q8w/ZW8znDdWnAny8PKy67Og274+8a4n0zuNIptWdyw7AbczNBBa0+PgnBvbl1eTB8OU20Y9nyLBa4Ho/U1zf8mkh48LSJXHExGdesjhNpUJx3YdaasQrrDk9+vubTqpEhG2do14e4aFSs2kNqkI5UC5iZgN5v/Kmv4yvkcMi7l3zyXv6n9zwYwmjo/ujPHmrbShI844sUst00U2a6TnqjQ8aBBWSA+wND8EvthwbxL/r/+z27mOcpfLFR+vp7OcwAow4tTBPqxIe4PvzKPoIPhPFjqC86TN3tHRYS1u9LvMJDjMI5xHLpZNASRWx62CQh6fTHxZHJ2sLc+KoRJUq3Wa0pIiirKwkENpY8rEocw7Vzf5lG0+AliTJl8k0l8Me1rQ2Kz9XWBvcUQVBmJVuThT+T2a0SuH06HIZKf53meJebPVMIqgBxU1fzKISosIR8fZvUxSY1qjS/nfN2/vc1wya8MEkpPc1UyJMX7V3csCYYiPMR0v1+cCbVevcclk6cmHZMHPSh3OMyvKgXRc7o3PY8tXXlvn31CzFRehd/JD5DBtA6k4C2ERaZ19Km0aOcrnqqZAPjPGtA3Yvjj03wjmTdH2xKJ3y12n6u4jSyCrrApS1hYpmFH+B0X2I8RYGQfIBlG4sHuFGwk5fHSnRPSbEEhILDRiicpDpfeBY59WtNd6PvOMhJB80/vHkYvkANSUj90E55HdgmAh4qUHkva1DbTqL9iA4HqfoD2jtSRZN8W8imzkcaIr5q3JDIXbN/lBWE4k43GaX5yOCTqagGCWEyQyNkNn0wr9MNI4DQ1/F4KTdW4qLrnksouM2S2DExGThpZyvuzW0qyraNra7zmcRSYGQOudOf9CMEe/EAEOuB9c8Adq1pZtBd/UFTTm/FrqJbzcQx8NouvSUL6ER8q7kPW5pTtg2u8mFvyGClGv4fDLDBAW+f9Yg2EIfRZfiiFIQdJ8C2L0ThCzPh04OlyxNtDIKv+Jon4//njzN4u8zRjK+EcSajH2LZxCbXFLKFOR/AW5F6Adgna0hYeLEuKEHUUTThuyP/anxzWksLE7Du7gm5AKe3UXRYoJj/7I4fz7HQrpbdvTSIV66QBDUdJ3GIL43i/z+c+nIA4bSI6QHqFA3TtFPFuQ9kMcgKakZ8LSyNGjyr2OzetqNvvg+Es9WKBwElxqG2UJfq9uMYADxCbxty/TqAZhHdj0Nhn8fXKq3h/DHjFrfbn88y5GBU+L9fPZRfaz1NRJFysKw9jl0mW2dHNllrK8eUpQGF9V1HGvvDWzaJ8HxMt8m4DqsGV7CVhSRfk70GjqJdl7pEl3d0tCGinwFdVcJBpONP9DssE6M58boVirx5KBBU2Phx/875DpfqW9yNnsQdJhWKgeC+evWJDqbqYLE8KCQBwNW7THbxXHUIwtHB23MjquwgA/dpA+/0xWd+Lx2XkD9Sjlv1KVEa8jUOpvSwBnR0Li7jRDB39OVc8Qiab0xZv+OU1yDGAU/ewJ+jQ82BBaCA+4P8EfwRUfVF1XacfIETcAOfegfr/XYY2+MbDAqkDVy7ASFcWbeL0OWrPtz4jz+kvJuQijB9zfJ6Hctf9h0e3gpn8wYZmnj8I1RHJmGBptd5qpiz83zW5qFYfxfbOZQcntXZN5IepffYy1NpxujMYjSylLdeqwF65UK442gWjGB+L+oav9HfVV3W42c9atMz+Dr6cxR5/GiGXNug0LNkwFCeS7Aq39E98TypHMbTibpPchWbeJwc1lBgdcrIsae7XWtGS3LI8waQndSutHaO9d/aUvJ/u0rAAW9+oRAAw+Adq4igOBYnGfFpCYe1cpQCGaYjHMKq8JSVB908ljra9/D7s+9/prA3yhoRK0OSJ4KLD1In1U83BOTGhsgb1Hwj0M+xk2+9b+NQaq+kD3cUDHa5zKBWyYdtBevtiWyTlgFtX8b3bW5RkTE4LcivEGdrNo3S62m0BipN+tYQtnnY9A0daOM/avgzbOjfuaXswMnqGQ7aQAz+je31ovrOjHACd5UznVg0/nASz6Ugnfb+4gHhjH0hJU8sr/bP2qUWXBaKykKc3tZc8FhKFCzc/VwfP8NCP/qIqZ+9x7rvAxH5tKpxPGibDY7dia6IT/Q0LReyq8Ubn7n8Ukg2nX84lWyNzyaC/hAVkLp5dJZa0UFLYS9ziEYfbMcGHvA7w+DmXb81+AuVNQ2a4WDTRLvmI5RnZBH+r1qPUwaFfCGhV9pipM6LdN3htJJ2A8NH0LqCMKqVat90U2o0pYpOC6ozsc11QNqfrOYXQNbJN1RB9zhhnBm8bi0h1RphcmWezyslIOqAijG1o8IMiHPfGMT9eDY0RFyXCLcpGfWcTeI+8QuGQAyJ862AaFp/YUF70RyJz+MGS8dkfgBgeSB5y2NFd3aTs6QoTCDXkq01lOSmsZmeYyZBUJFl0XzjqwwWraG4wbtBmpa8fEPgNITasxy790EbvZk/7XPG3lQ9qaphtJ6eU/nZ6WMe9NUPAUyyr/hqqQ15P/L/Ax4v3SGaknhD0IwnlosEAqRR0vCu9A5i8ItZvGp5aDVXC3DTVL/SOl2sbslQohy/pBQmptxfKoZSEskapYdN9rSpFN+ziKrJLQ9gG0EW77Ot/WZRmeyg3cmP9ZwJKxtczpVpbb+OOHBo3HBuKo2dSMCD2jge3wNDE4iIsnvg9Kg/aHXF9RYF7T3YR6TsbM+Ioe5j0MegFlHrQMsMAtZI3+qdMFRqRlKzzjOZVLb8JXAbgJyGVzz9ILlJuRF/bSvrB+7Y8SUKcBl8PY3mWlzJS96oroH7o0PJgQXcgPuD/RD8EVHNS+XSAq7BQHrCAC+nlE4k468Jm6IOrYfaRJXYpSgA7BDuyfCwS6+PKCloty9zQ5RWbV8JoMIUpdB3wdR5YRoLlGjrHhoyfQM7Jtn4gP68E+raXHrAUWCEtgpbTToqwlmqZbHfMcy6f7xXQW0w34yFhdhG2hur9m34OVwmk7GQG/LK7SX9JYtB6PgHracdS6viOFCqDVr,
TvRsCXWCY31TI+tjWZCgtVV3sqjs8B/N40TwFpVPJLLsMd/uhxYGW6NKRj8y7JmW9U4U0r9XDufcDtaJy5R++p1M+ZFd54KN33ysK751a64J+VJXc+602Gfyf1tx68PYVPKDF2nGHDgxHCRrJGwWZpWQrDjgPpkRECKvqoV1VWpEWPqTUZVlCjMmeNGrJzWb56WikAPwRPqD/d5kEOLGiBPvOHRIUiZbpM5BlU6ohO2LJbQvJJRau9f8m/DdiOBjvmMyoF1Xr+g/03idEbJ8rcKJmigs+pYbwKg3FzTFKAzOhmn5tpFBweu0uJPXFZev0/qHD4+pKcL0UAtHBC7qJZsu4cKWkeqDgsv2e6vcLHjHEqd+LG7ypPn1V37JIOGzMB3AXHJ0XWDqxHtCaFxCutDAwoYmA5zGQsYxJC9SeCxp0kqhnF/rZofjFdV/k1to7cZ8+08sPOrZpXmyaKwzzFO3nDAxc/HSzmVg5viyGIyekase1Thi67mz6RD1qEdYi1orZ+vaiNoulB1MJmavmUwFj681JcwQr7GD8I4iWDXCpxK6nEemhxwo/dHd4UGl9WEtqA0UP5617FsnsO2RweyBU/CDc1dlGFl18c+Pexje4Pq0Ag7RW5BARP6if+Qin+cJtG9ZVaXG+emdevYImYKtILfjD539ERbXqaZN8B+3gsh1pRwaoM3YlRzTX9z1QmWS4+CAAb3il3v6lQ89vcXjH3HzVIKgG2u8RTMiKpOFBEzAvEGjuNGrQRPj6fqKw90FSWaHJph6DwyWuVggb6hIf1ZiS7UBvtXqxt6Q/1EJtaORBvWclf54o6t/LRGDU94LhqhKHz3nuS5CNlyI7In3wp14YhUf2JZWZZgWK7t74ry2tRL6lBLJepdFSsBc8kmExG5Qhoyub4Ex0498Q/FsD8KApeYxiE7HCwtqhg+hVTilDBTudus12bD3OATeI8278VPbcvAU3Dk0v2E72ujtvkthJmlrVCttVRdh070O1f7hNqnyN1n1NgwijW8qe/1B26RAWcJPFxl0Wu8moDiJBnqp9bY37q1OI0DFlMb978Q34L56o0PIgQYYgPuD/hD8EUBn2WMfcFSLgjrkmh7pvZlsUdg1fb5IUIR5g5799lh0FGzyZUOs0XCznxMT7CYf0n+98WOE82NR34djsiXIt6rXj76V9qhbc0fdXT2p8TS7NK79dwsYPTGxDBLi19gkB9LSLgn0aJRg7d6QjfdVWzsFB+sNZyq+szcpXqA+OorO4dROItUlreBji9d1oTfnELMlUPd+TVF89ps56DNfULgXrvJE49XCe8/HQc2CH5s6bhVOzQ6GdnUoe5xaWg3JDdFEBlvejNltQZgVOhLVEE/ab1i/nWCrbBkosSNhvhMROr292KNCJddqjQ0yXJq12jaEAkOEGEEscYZaM9YKXL34BKxvPTNMdAd/PAq4B0ywKkSogZfmVRGD7HiWfSu0F2nR5WInh8O2+TIBACWqmr5bjdhTnIWi64wJkGO6gFICMCmzkd6WzsCi6JJ0q8W3wwh1H+U7SgsFJD3hMfYiOUMMD+H4/Ay2zEFofND1cylV6n/3ijNSgw9d/BIVuudPf2kCZNbeQWLbUL2VwNGgTFs5ig0akheyDsY+0IMQFeWt5Xk+t53F9uhzQqVWhVTfr2HKbmpTs7ukQS2m1unYE7+xb4l+MjlgKUKTlZ6JduUE64c7nfzWpuLxzGpLMi88pz19tSSfdeec+GO6+AU0rC2Thu6Qfg4L/Rr3yJ/vP9WVwahIUsPEynvhYLaTZOSLsE3OilL1z4QyrpBpB7LtjPNI70KNHCCm9lRBMjzI05yOQv2osHtKKDvSd7b684qVsRwjqoZ4Gpx7OR340pYZnazawTAUvsdTafyCc8w6FAT0nbvmtCUGSEAUvjQfbHzpt4YCd60Sos/6sxnrrGqjU8LnBgqdB/3yY9VeLwttNgiDbRNzMDv/JXgz7vQcvaAjMKMAQq55hR2bb3KdKty61zj+hc08v4IQ435m6abBFRO828ZhfAJrmslGJiNgKJfDpZtVLWmRZfq+Xzyylfagrar3vt8Q2b5A3A59ZDDt00T4kESieCMRfxPSYgpj2M31k4zZGSysj6tQwKU1JvRqo9CflOsdP3ZPZNYZNqJZmNKIokcgfBYI6ZZjyAH2ldkp2bKkI3EFhWWIiU6GgsMLWEPMqDvEnStJPN7K2fbBP8n0rgH/+ZdEBA1ZWn9I0rTf5NrRKgBM8HkqxRTrnYsovRgS7YwV2O0xRSrK+Tf6hWqnpU/rM2/WPcJ0YT3u7H8POytZiYyZcTkPkz/m/AzKkg5NSvga03a1TO4eE3ZxkXSMPWnp7vkkfEJnUdbPFaSjQ8uBBlSA+4P8EfwRWX8P8E+RnZmJ25RENixC+4I+PKdKqJXVYIbGeF9RDh8hrdZ9dyZqESa+/Pds09U1OBJJYVQOjM+0bLbiHs6A/bo1Ck3vkscryYHh0EBNP7jsVCkML5O3IL8k/Vtt6ioh9cN+HWZXBdoEK3qf0PX2V6cIGs5isIBl6PbE0kz1p0obdahxpslG1AO0qhva+q+k7fH4wea8VnCWady0Wn1/gVMJ8LFdKTvIpg8RmMA2GewagipTna3AcIr1GzQOEoYcRIkIv1d2UoaY5oSDwlDbXHwuAKNvSRvBAi2eDi3HhSM9hFhYzkklvwzUig0AYiNwEo/IFlf3nx0tBYqo0bf17RKz0ik+28MuVFszPGVozJnuY6hvx9uzg4Om1V0rayuh2MMDiALdgQXHFtg1K15R4JhemS1vHRWUtxzn+kQ2PnNR6e7ICZHM5nFebu92lVZGz8JQkm7CllJe4c7MXhjmciq1AXebqv6ow4fE59Nsjk01Q6kNmgpmkEz5LD8TlTpuVOQlfcquoIqr7A9UL8xbnDQPUDOAGOPNnMY8FDbk04OtPx1dwJhF5EdQOthmI1YaTglkotuD9PBLLhxk9ws0MsFdQDRYDyKPNqDkFN/8j828pTeNGavp9qCPpb+M9+GM8pT5bS12LNQV3NovvsLq2I+SuZYcXdVK7LEcNKthKbpR/zrUzKuPNRPT67ZWJL4DewAg3OLDnb+yKgt/6X4ndofKjKNGKmm7WUjN38HRGxzBxe+H8g+oXP8RyRmWR5JTeoNrRfscDKArM8EbqsqHHYLXWqjgWRzw1fL9fU3Rgmbvd6ufk1WSbTUK+vePHCFShoOu9Qkr+hTQKwqYJvfQ/VGlWbf/Ma0/nfnRgUCw/2FbVSCQpfYf/XA6AjEbfbFBAz3MfsQDzG7u5vq28RI/ES8bFaFfuQM6O72P1WO8mCkDuA0LBEqTGqZe7zo7V+du7lkz3+G/f245jqBuWv2zG2ecjhdY1fkJOlZXksFOPcWZav6Zd8JNwu/iGBIf8uxgoN8n76T1rpaDeEVD1KxlpfCy4yKXseaHNELMz/I0bnhZ3vUjbOxLL2lai2hICDuo3OP6PiFYEnQWZFRw3D4+ccMraHqgQd6q/lw8UJXsypnY8S/1F+XG+IhtxGHR37acd93Rv1tQVJ2Lg1ZkkFIX+6FbXZ3NM/QMtpZeCiCnfiD/xrHEp10RRK8ALeK/NZDWF8hHtJQq7jv9En36Qd0geg5WNh73US7GTjxM0zJl/LfmxD/wjz8CT6YaZ/Ef0/nKK6NDyYEGj4D7g/8Q/BFa50inosW6zWzYo0AWRJTN2/A5Tri7F8fVEHTTWSMr+YlaGK+697Ta+qIBQ2koqLgrICQudIplulT8Q4rlSO6k8Gqom9JcQ2k6+a159dLROnOK6lpSrmMgqBdXWBZeCSk3A3P7TUQJP0ECnCSg0tHVlXHDl3d2zXGDPqM7oaCIX1YOv83MBgOzEVTuFPjrzEVNGezvwDgiC4VOnz5oQ6sNi7qABjrrcDmwonwNbD/JNwwAXN8EpVVnHo4gYO//psllhweNRnewtveITlqO3I6t2KJ2qaGi1AJcgGbqwIGCqh/H1AoynH2jNfPslfWM3l7E1IjpOmACxMfQxl/dypy5DDzYSaGKrJc5u52CnjfyHHTSdWMat0g8X7yOdQkmcHVYsbQvczOb8NcyMbBevKgKgIuFg4GkFacB8b0wiqCGQ/GFw+OVFM168H/MLkGhehWrQK1OAkvf+1PlyCY4ta23iBWd7BzfO+BOQa5PT/TbOijfY5nOxgu8cEjhriAoYAlsG+7HwlnSCwLuXY6HD49zTlbmA7p6zTpobdXqduMyKKhICzP/26GHyMMu8WJ1Du6Y+dDFapikEd8zYH4iEbHj+MgEZdBDWp93e37oeFDsRo29Sf+4GdvXF+221nnJWo0eOHKQBLnPhFV/DIp/bzZF2kujEPakH3hfpZO22WGBIOdijHCXiTB9n2fqHDYe9TFUOiyw3VV4nL/j6e0b3eIMqZWSnvTQ+26eKkSv0yzGwcSJCAL435lPnrk76FdCvDqpI9OVotGSyUoSoZtnD5+YY7A/jTDhvBjYutCPoq6sLvJjvaQsdn6nlRFMN+Ni1BbVj5Aq4oQk0iRCXxyimm5RvPUQPcMXcZCVp0+B5oHPaVqYIentMSbfDpmgCauumYBr7GXyVXbLJiD/GyACWn6qJGVE5xm0OND3NSmU2LoM58TDaQ2PZB3LCCLwEdpcTYqURAVbNc+mX6KDt9Q7dDfZqkLMoR0MU0n/qXsCUefnVS2pl4b9pS20L1wiY4eV4jM/dmy3aZu2M2lmnAS2mWbrvoP50ildycZoMYC+5GsROfzUcXIHolEqTgA/mCTT6sgpMj2/WGqfL5psGwCL6qek0fXZWG6zDvskeXAF05QxGVa5t1UXSXYD1gWbuFya9InYow8oyO5UuG+7iyfomo3KV0XxXxuwx2A5iry8b2eM+ZeW+d5t1ItkedjUyZypcgouejBUDMkyUpq7Cx0e/7jFIni3SSExi/vJTs2bx9YfEvzNimqsRJLpM7TwhkoctqND14EGzID7g/0S/hJSIfr1djJ17fYrtCJf1stFfkIk5TMWXol0VYjhltMto5PeTBSDMZCn7q6RPXIa/ECxEuEG9d+CzJwZ9QC/sJQnKUMNMNwO5T7zdA4/fhAC2nQ3FHlIeDfMib/XNR76AAcR2ftrMjGqR5KvLHstIA7y1YPaX4pdLSaRzIQJzQmqlNAtvzl3R6Q/lnPM5MDzVCk7aJYF0S1zx6FmL7bNtx4zq/+4tXD6xf0RHVm8lTz1g6xKS5G2tosWHcq1dV4cqSnmgfN9kdhEQSwGy0vXSOq6o9mTPhCzPJiLWzSNc1z3YNnK+wXPPH8YtGR4dIOkRiwNkFdA46Ah6zhuTjLcCKRUVm0rCKpNi/DOwHZ5lTS0y43d19waoNKUSzKCR8xV6iJsNyf/Tj1L07UA3XOI5+5xjYbiDJfOqfuTu3NEU3hYaeY5mEe7UUmza/ez+75g8LHjfJJZp+21aBYKJze1fPg4kTGAzkIn6oILHYelo844rPwY/7D2fh1pEWLIS0B85rLd0vc8KAxu06OV4zuenmsBIX202HqpJtLGEcSzpgiIt1FtQdVSOKzkoGFt13TcBsU7xnH6WPYErqdvDD1EgRR9VQDXJMLxnyTmLh309PXxbJpI+RqE7nOkmQlTLgM0v7ZhwHPMoA1Sa9VD3aFmPjYfDP32my2aeiMjZNXfqVHp0vasICkzAdwyrnH3R9sxtPYxa2UEyacNvOmAiamBu71DdxBYK+rGWfpM8vlnY+uyGm/eeebyJUw5CLFSPpSImAp8qP0UriZGcxwlOV12jATz6cAu+Awi7WBwTTFtbdkzAoTX3179thY3s2a8SU5HrivkhvrjtfFPVw+vrr6rqUKZumb0FgUG7AlsuUNT4tY0sycOQYfise0zHNtJixw8FIZG6vV0+vVSHt+CmkzeIJehW4b3KwH6C1f4GxlxFDpebonpEhP+OaTR+COtJ3wRe592nFzs0pfkaVCtn8tUwEofz8gxylc4TqcGGmM710TLNUoZ2Yy/iAbjMJ59j3RZnhk+6/28iuL1R8Wh/JsJfMc/kboLcNiqGgoS6zb1lfY/IFCtMCmzsvNCgWQu7OB7BjnjDuArcjIIM7iKSCdYstAQkcK3rzACP46WMA0o108v6eXRHtIa5vIR8zEeTMm+Z/VCM2pMLC1CI3Ma5/lpW2IGeECXojUct/JVSOhOL0jX4BAlWMhZT6S9J/B2+2/EZ0+rW1lT0Ljv7nJau27PBEbpy6zBeqwEl1dkoirxVJlGFH5aEjUTWrTzposON2cyPXiBnrftRPx2FKjm4LiXo0PJgQcIgPuD/BL8EVC9ufR9e79Q9GQO9sEdmnpnaebzc68cqKto67CG2erOrTeAa7MN/rl5zrXMyZ5S+YxZj7Phzar6VSRdfv4lxgc5QkM0dm2bX3MPZk4oI7XQzaaUL1gsUc+V6sq9epCo30rfZrzKk1rk37Xw4lQXbsAHB5d4rKCf6WRMHEjg5aeY9hWwas1tb8OmM12tyhYY+0qbqqQxd/inzco7C3X8euaM9dfq0TCrblu6yFZ5XF/iH16sUPoLZpxPBKE8xDc+tgBPo1GmJ+/LFpuYyUs+B+bhkFW26+vnqbJciZ/QvpXHITS6yxzrBM10w50LPqYiVs0TTYjNV17VmuzGIal4PEQuf439TCoNFfFYfNqrnTKZsS/h+IoETQIWnoWYaXqw1U9jUlkA+A1eMV8oxmY/ubHDf4M6Rw9odv24CS+rxSw7pIp1QVF60N334Aieb63W0ZjC0ePh2TnbKx9/urmk3HjfNeeRYCen2KIIG6ndBbPSMW3jV86Gixpm5+aVFhEXcyBsr95h49S7ooqLxKMfK5wpOfVlTr7turnp4J4I0MD9jz47LL4L1elWm+4RQy/d8mWDt6+GBDxZTYy5e4CQNQaReGEgjJptnrHk9hLi8hhh0mKO7fjwU2loSFB7k+8L36XbKRSEHflhFGtDUb4UMW5mA2qbqrvfz1TS6wHLzOnolJL0lGcXpCIzZCFFI3FlDmgmtzhuFch1WBe9pEnWGHVfLA/4vswDi0J8PZKAVUdCZgYTug2L+iiPePolThspbZHuZl9f295q1tLc5Eu/re94HMRzW/y8ORjdTWlkpxSMh601y9LBbyI41lgmCjR9LJblmwACPDaNqeRuuAhPwbeU7BZ8UJXSlnUo3C6SpRpKWbjzUOVW+p0dI+HdAKOHtIUxMs5nRkkbCml6ay8XCao0SjHN0tkQrbgF/61Ror/hNVmkZOq9vfD3zCCmPXaglHmn6IY1nGQOVroQNXX1tCBJGKXYInxVE0xsp0x1YtaQif5hjN1e0ga+LV8F/dpCcFRRTpwXFhmPCj7eMuxrmFRQd1AiaOvDGJmyZ8NF3LWhjuKXSCkpgvdxAmBTgr/MrX7bE829XcdPta+kq1eNbkWDUNYOaXxzV3/5UBWFUieMW0komYMQw8ftcqAT2h3Jo4Vn9sfD2ZcyidOH5LwWJRz81Tcm3M9sfoOBrVvxIurPtcVXraNjs9Co7au2FpkzHgRmAXutNlB1iDFInw7dYCfDjeXhbkyDdk+MFj8ymO8fTSTlaKqpNtgaeTuw//rdo0PDgQdEgPuD/Q/9EVHiYHmiWSvCRgziSVeaaeX8Es8ixpwi5TO1ts4z8hhRecWffTzkYZw7P7B49MakjJ787tY8Q7QYJj1VvryajX3wVaSITIE93+2O3pcfJj63ic18FvXPgS5h0Z+DLwo6P2mdHy8TZj5TLQnt1lBDs4JZIBXLXM1RagUDr+gLmcJiFOETbJ41hLZK9hzIJQ5CEkcP7ggCG9A04ROMtsSd+gY5xBGa1qrGhsn8Qsge4/RPUnrBc5W7NNmiNwNNEwJbfh8Ev83Ie64vcsZvJ8PrpxkZGSspkHjEHPChRyTABae+01gQVt38KOZsA2rIanLcDfnXdwEonbSVUtQrvGFKq/f6+XAqNqN/aMNb26zy9ewJI1trrAvY61y/qIT6mg1j1VARCZVgw3B5iMuDyH7GlHbFsZSXYZkOHHZSFyrAmEryAMfM4zTbZcvQHbvH6aBHVljsUoYkwiR7bYIdWLaLezDyghkQ0+BZkOy9BMPKgdasPj9lxRgSFjeBD+NzMg33wuKkCoioenI8d9wo4yCjuVvTeLeZjow5gIBOBQc3bCMo+RHTLD8KyObC6obk1dj1t+VoiesWxisp6ZGVXXQpH4JUC42I2urO9P+tQbZcKih0zCb5+yF7NVt9W4h7bPas8IYy0s6jjGFlkrCIf8xxzQekOpf+KEzja2v057ocvK7ds4PHruA2YCvGnro8kUI2eBzVoLo2voT0m/VPj4Sso//KO347LRICcwT3ZH/5lQTsc+YH/uJ4Zf1QdAExk08prdA6X8PSCktrCxxDuSjh3p24pjMrRZkM1dkEBh8jG/66ucc5xzQuWkLS5/BmllLZYzOqCz/lYU3TMzxEDOHL8h+oZpVyblJ6UwLVousAHmCqg9VD+zjI53+CjmZT2cjBHs654yHJjC3dJu38sGhvi7e2jDYHyND6vrs/0Xo31BBUCnTYpa+bOjquDHLztWa+3anso1KF1UAeddK/iCDwRGTiEzzBxYLCOI1BKqVUneG2Pv9POBlcrTG93uNTisruS9vlZnTQU1c+G44PuLWPWbV3IBvKGKAiPkOVCdMS4Mktisxos+3ndixjjW90WciE9WM2DiQqY4NjFTMc8dSghKnuBYDShYqjjxtkskTzpzM2jla+G/kUMLLZtQGXBSVFIwqM/ZqWLZLkXMyd9Je+OfEq9jC6czx6XhR2VK90U8CfHPUMy5srMrp+p5OalwgS6MYGnTdrcPa81nUcRXdZbK0aKRzwlAExsA4q5cKkaEF1FMZQzUf4aknAo0POgQeAgPuD/xD8EkPMuxxh1AUIc2SuQBZ1cXEAHpBycRZuSqLLB2MuOAcRBZMVjxJh6rOwYGJFR+0o10N4Sk9zTevbrB0dRwR6kEG7rmQ6zChnwJyY0dVoppzdNdrTK3QpC5mGGEOrylARMVqVIKTamKzaodMZFjxybl+12daCAJRGirwkScgydyo/tak66QWzHbf9mrCHkL4ig9D9u36HZsEBxdOuAtCaenPxZpRBXT9M+WWBzrh0gIO+T557nHBX+6Gn6wKu/YAVHcQt4U8btkAn6b9d5KzMUgWJ0b9yG3YStgeY1K3Hm2BsHy0XHTl7edKZS8+v9EIgdFWwHBrDeqZUMnS/xLBNHVJ9p9ztXQgznRxJSCGdx6SzldSt3QrJkFqK+Xe5c0nW9iBlhOYyGjbx1VGJ9nduRFPkp6M/ATomx3M1hM/AoqBZdWiBDrJSmspppry/z33fEhG1pX9jEehZfQtiAkjDn5ry4DZ/lyLaq8JcDG+AtFnBevjy2bOrkSy5a/xkuvCUzcDRamhZXsdWahQgCVZrYRUnb+5J5YeTsxt5+toIKX6xw0I4QUcQ9sCowHKg4iqYkbz2DM09AzN+lDOHqLElyvA5tWL4vZRX+A0CshZA3a8IwtFnILaE1mGMP4igxciB5zh8CZqdrAhVde0miUY6fjIWQ1j4Tmt8zZvbnrlLH6KEIchNwlzzsnb4qEwse/CN5pqnedzDkLJrDvvPHPH0PKnHGbIXo0cKO8MMdN6U7fkv5canQxEstGoGj1NhiPpX5R0Mh3pIOBfZJ8kR+/q5pnEYWEvEKdUax5rtFMuz/wA7WXOCaZCmRZYoJjHHy7amzhmaYui4mFOYldUpw4Gmm7mpUjdSeejQj4HxwQUvomcTNXS6bjQOZGBob5rjfO/Sj4jtIcOA0KfpUueOIcm9mqOZrrOFX/vzrfEEMOtS1y41lRCwsrFfozNB4DXBiFGBJQ6KjBm1/Ra7rr/fWMlsGYQkJV+69cUu8H42YzrRq9w9Cd2ebXrDHp0V8f0TzyumFeNB0RUYglAjaCXdmXHmzL/WeaGK0K7C3RyjGq9GwfMWp3SCjXQ2n++dHZ6aEo+dlXWo86K/gJa1SMOnDkG4zenQ01TazmpE7HuzumXf7YSuvM5hw9LAvOtBJYid0aSl43aFC19qcqI1sVutc0XwW2Pu+N3oQ9cCFcwWrwa4xfZ592wR9UkDYC7gJThq9s7EQ2yi13KoRPdftNf9CTcuzPMB3kO5fgAuBb43GkYlE8mCrJZ+qRyIds5pQLwUuSDUd4+DR/+jQ8GBB7yA+4P9D/4QU+SuHsIiauCa59cwzvkCmGlubSVLb2BYea8JEwd5RrTJ5HEunWAv/a/Xmxl3kFVLVcgmqIkPrK+j1xXF4GNmaO9NaWi8HaRfPLYZoZibVcCTJC/iAmkxa/GrNFzULAGW7s5VYAiTdjTIWrUKsGEJl796KWb2IPSsWd1sOSZQ7eQF2Lt/vDj8mWfdXrU7+BfV1ExnTroAT3JmiAu5DWCPegcCw8I9RKLkB5/ElkrHCGGE0dH56FPig/hBPLO9FmZgDgTelDJODg0Zrl5x3LHla20JKe2ijYaM7rzzVvQg7xyoV1cL9y41r56z6LDch4h+1O9I97En1Zpw//JBQCym9XSAdbhcT3riRfrLrg5cZBaPNoOAT8ck59uTbPslEQkpzAeBgcQCsDRbbLcbMCC18MUuAz38EGXEC0QkNQeZBN6Vtoz69uqY7Ojy06VUFhIA+GhvHBlG+xY6PiDQ7Wu2cwGCb2sNYS9nLTHVZPoDUbifEQd0490JkuOEo/Do0tiT0HUMbtVxqbceVxA97lG8ZNZJgm5UIdr0CjaCy8S/8ktiQ188JZNOuPlesNT2LffN2WlmjusCoQn3KRomlXyp8UpY82PgySvHy6ucMoR5dGsoWyiG0yuN7GhceWNBpB8eseCx/kcxAHlSUZClV6SaGMOwD3ahKJTd2ww+hhHWJNDYWtAovqrHz6mkxe2z6LlXKleIUPCSzaiedEqLvv3jHefzkwICVJIQC2fD8FdSMQvgUL2sEiHwnkUbI88VAkF1CSIXISfZlN/P1vYFFAcyGFzEbN2Net1gLqJaiL62mRpkmloDoWfXfhx1iKsu5TToV9KKIAaI9EQlgS/Sr2IWIBlLKe6z5QIEx64r8pQHRT3spoe19vLvfuzmZr07g6cB9klHSMkpCVi+sfwtUo5kCUEQbgEaUHUijytbyulKs6/HnytOf0HavJv/0dCUuq178262e5kuNwFeC6T5vKJ4acK81IyiPINV5+6d5bWKK9rkYCLTWNvCpFJM3GfJXlMgr11tTGDxIz0YmOK1Y3DbgTZJmxlBN3KbHp61CvdrgwtWE4HReO5fyWokGhtKi4zmtFCXiI0o5Fn2C4T4KgtH+juRlM1QPmwlocWWrKAgdmxv7E1xpsgQTw2SVMuwaJvsaZYnf3lGNVIRkg68xiXUFAtgsyoqPR//B8E2jT1x0Cvm152ak1BtEu5ytcGakNEaLUA2bF4KCw6NM2h7HAS1COt1U0gX6yex2GjJ8qfMOOXR90Js2qtgo0PYgQf4gPuD/xH/EVBu173RomEDx5/f7K2RhmD6nNKJKd3KWq0BzvVxGtzPtsky7SRBjy0B/an2wMjWDiTZUrREGGQWMEMub1CcJ4siy4FDdJIeQNWtixADSSlf75NJPm+/UchkTgOyLrFWEOESxI4NuMFvqBSGtpk1i0f7yhPBHyOwQrGRYProcvy3XQDl7xXgXWf/BB/XaV5gJqsHKnaJO64TPO6RVZEGIiJ1QKwvV/vlBA9fGhCtBwxmUQgus+OCGBbZMa9bFPTQ32zAgNfIYvDdf9lj9wQDfsXwvMvKMwxKgWwB5R25mNycmd0ECP+zoO7xiz8DJypRvg2YYlsu1ViEwinggOeCfnaPlZwcvCyO5TwPDKxnTmAe57uqihcb+Z3DUFSPOV4Grw4pEQaUl7r/AkBgwqq+LcEQZXgEb3WSd5WJpvgc6nmJOFVGIwAD6rE6xbk2fdEtlKO/bo2NvIfGYjH04GZM3EyKqm65s78ja5DV0sD2o1frU8QW0000wydUYh5/LfNLu5+0I2jVOS09csWqWXD2ZaHOcX5EVZTuoFr0DTZxCCNXTRI2CLfYvAdKWWPZQt9RMOB5dVUCySCmFd5JjR4tGzUv7TALfLvjqtnbiU44iq48+t79B2q8GC+ORvlm1EaNvw3kvWjBLvmsG5CI4M0V/bOVq/EGiI98mIBqsn/q+9Ruk3oIVOLLDZorWdTos22HpUdRSWtxnNHVz8DfSG60Ufd3oUxkKZNxJzwUpX6H3V4Ia8tJL4E5b3NOtOv0hBD2XDsTYrsbKklz/Z/xQUrBRiUI8LDnY9jP21Ux9ldrvsCd1+6/9EcXA1fogUoQZhsq2zgP+Zo+1+x9QAUaJBTIBl065EOn9UBP+figayMOtzotZGib6DKd6DQbLVSeY/pjhS+kOUSld6bozoRnhTIZsAAyygfGrc9PndpTYHaoeG/fUaa4hzMOqN6U3W5UTy9Zmr+mXGHtkyH6wSTHYpmfsTRc64Z7O63S05WtViAvHG2k7JBwys92g3XV75+Bn0n4mLHhpkzoqeI+vkJuYBu4ETzA1Fmv1T23Gp4VCFGKtOqbc14443DScLokxVREva7r61Pvc9BHWzGUZoV3tGG54rYMaU5o6usfPl9sIqCZBboSl9A5SptO+jkRlkw5tWyaq8UFbz0mMRxVBLWqtuX2DRRYCiefTbUIlr1xjj0rY2+Y+zSfnFDEmYDOpfWoUSXQ+TgZ1iPDCCOe3iQRhumrxSSQcrJIUCArd1bdpltZRZSmjNEsUDMpphD7dQfqMvyowBXTBxcy4/L2TX2MFEyeo0PCgQg0gPuD/BH8EFPgUft6L9YjR1A24IWhl4Ltr7o7sMhg+NOnijSnlrhpPVTCp+9/cVISZ7Hi6/uNGOZti6gcjlf8X31u7fhAXWiMmSGmrejlD/yfD4PyAyO0JofymRI0WPcKlKNjd69LPTmA6zPtBfcr72VM8X3LROqHDbNRg8P9Aa0q2VKxQ8CXoh9qsciyLRFj48dy4ZxzFGBuW2G3tUoLVWSmKGfdP9XJ+0u5y5Mb96/SpBhHRpPSIKu06JO/X79mePaRa4B+3oW93iBwnlJSML1KzMOrYupKa1CXKDfkRgvttNULVi2VRFQVyXgwtiMgb2Vk2ZFG+cl3kexaCqTZb+qlPoUACmZhX89CcnVTxPagfjL2J5HtVPY6ft9uHDUO+2Pvl2cwVRhQvcWuRkCplDMnGW7NQxnhofwV6x1uBcSrDnzFajw9UakvLCnP23N/mPeY5NQ7GG1VHIl9BCAqRf1Iapj0/4aY7YzKwBR/9IFdy0rK99/6g+vSSXjYd5sbKlwg17t6tRBQct/2lc5AfCsqD3kPspniUqKMz3YMKjtsicP1j0BZoXgpY28Qsmagi0hP4Dd+bFW/ClD0VWir9E98PoBmMk5bdgnn3DbMFvc9c6MPCEQ3VJssB4eietra5Uf/4i26A6chHEcIRZj1pfh8ISeqtN5Hx4tHGyMojNPIdArpKrPjpksvE4r2ZlyPmrlyr81OCOtaPfY0NX+/7/ANSMfqfWCuL95dipX5ZkEK+Y3hjw3/K5H0xQL3bcn5uGYWQaqBGIf5BgIt58RyBAvhyhzcEzcEElVTrPrjbnvZXYD/GYmsH6AmCqDIYSKuEnULnjF13sIkYaHlTnN3Le3i/FFwBZ2uMyEU1frvLS/VlIf/t2mpQ55JBEC/zLyrc+DspQ087pW2QOKdzf0dGrqzsu9wt6iUmSuH/ekrs66ugX3/uTPLXIwLHGRz1htKp0d/L3LKTD7LoDS19CKYA8PLysBhv5EWAo9O3GOKc1qfaBahjJ5Kp1ImGAjDZtQXca60dBLO9JVKWl/AHye+XjEMvPCUjHP0E7/zNlkK1/vOPQV0oiMkCtXaTurCqFn0B9RNdrC32MvrlVYpvJm8vcrDBOsNyJTCyWOrnoXM0W4I3toTb7IVhF6wqh4T6Z2iJ6kFj3gBLiTu6HrEW2Lss8dhIoQRw8IpsmXNzSfwvnPgeN+pyPh4HCZUTuTx0iBz7craAp2hdptXI1BP6KDBBQOd4WwW69ZYlDfMGDDTznyzc5no1KCV09oIUCwVhlKjQ8SBCHCA+4P+D/wRU7TUKmATFUhI75SlMtJLQRdz+URJo44Omq/d5WZ6NpT5FOrBnbsiLR0CdM+2lRMUUwQg1ixX98NXx94B2Za9X2POyI2F9aBo2xpxW7KDeJFeJHT3m7PZdMskHZnsz7UWnmy00QWjGTcxiOjinq3+b5VrumAYbb8KYXM3EaU1XJndAO+eSWIbH2ZaDlM+BOMpjxvKy+VS0UrgjDX+pGGr8fpZwUJEMbBvzSLxaMnVhowRsHQjKPKLzroxmSfBMvLiyHwLoz0KYZ5Fn+adKyABcznFO+Djd2ZPGU80tvAwASfAX1xrqE4ubQwZZRgFChKC7cJKzPNPMLrTqhoqaZvjrtkE0kskoL/RNfXVqcBkt+3AsIZJRBF0uPk5SoCwt2qF69xz2u6XA8QqSP5R6j8ePSiaU0LoFV/mqHRR/e5Hna+RrxqRXzshDC2fMxQR1m/vfGw2/JDeTyEZZtIY//Wiy2Cq5IACy6H9FeRIJ031Me70TQFlBMzGZEVW+hRT0FszOzSSP7TszALecbh/u3oBwBlfgkyUemIWThR/KgaMBIxuHiZwb5E+oDEANW8h91sOYjEe321AVcgZBi4MMDTe2W8yAi0xJhQSqizoUxgv+0fzRKrOuya8U3R9u7ZkAMonkWmurYWAUr+SQzptTsQ9QxORVn+0786+ulCn4jO1XOq2qze1Sf6AfhQzxi+x4DkS8aluw1ghNDMvrY1oNUu4nQzcbMsqlXDipVftOILjgQWkUeFVNvw8AFsmaG4QxhYLL5/590eT7DyZ308+4fb0CUWaaomi7g63jKM1x1egPQq881TM5VRLrxOWLgRDOa0Lc5bk56EDrbZX80UA/d4s6xdUHEMACdkMbd4corBNnWrRGlYf2ysi5KwHojXtrYRd1K0gdra+PMub4Xf/bfJDd/TuPQbP2vxls4WVo+/mAaJVExGwSMpNdurzT4qVRlMas+M0EOq9C9QOTxtinh/2knWLD6QysGPsFvF5SZXMNIdtooCmzeEYnJhTD7iW588pIMwKsNzdhnpdEQi1h7tTgCQdZ2OkSzHElSuls/RYFMhdOhUvTRN+k1pYLTli57O1JwITsBzg2HzXrT4jfBIesiqsiC0sRATTKkVQHYNfwzG1aKjpMpAAspwlvgRD6MjVIrZ6SITFqjzPGZYnEyZQe5TSYjte7s5InqAjekLjl1VgQGlIpWTTHp76w0c4HTr1SDqDB3JfPyRPvVdjyObvCHxmbUp+rPG85u2N55FgJ7ZnEtoyz37VYz85o0PGgQisgPsDUbAThwsyHwvtyRrB7trjy0ryMC0ts3YZI/RBiypOpNoRYYtei8KFumxxdI+jbefn3X+KGw25zfIpw6rU3OofLh4yqu8M+fRAeLSmV5fd16x5cOJBB4c7s2e6WxqVyK0h61YrzE9wYtzVCpB8T7f0lGrZwGfS0dG/05+vYczQgu3WWw14Fo/ombGW2/8h4JFg4UZDmHpCBezKg+D4AF30VW53IMNuZzCxz9SD/bFZtW5jTdAlgqBlYZBMFv1bHOpWo9hsK3biFsn7qmzMH6913/xPDXep1O7xyJBRQ356HfSs/hQlcprJ3B+UaTx9xm1Rr85ZJI8dbZWfRtISAhVF2IZY17WB0ZAVxh/h4gY9UbgUA29PMPuIcBLXcT7Gz0+WMA9mvYVeAgd5MqoSGPSvt7Oh6W2kypSUpgkC0aYBRvFDzArxSiRZ0sJwxBH3AVyayAaB9HpaOl8Sy+gBImot0PeUHYoScQOkDDGHBGApYN7yaEGSpb7ufBVp4mrwcl3woK0CbLlKVxOMh689ACsYWb04FinRrdZNBrWj4sb4wJ5wcnJZ91d1xWw3JbRZrCgrwrtmtHkjhZgQ2fhCOdxHFPWAX8HdhPiLCHyyYnuwJ9jbCRcosJGPOZ2eFf4d1rYUSQBWpeYjM2+NRjknW1Uw3fvQHzSDEixq+qob91fWNj1Dn8gdxXLbnBPPh7WFEMXe2D+yW0b1Wrn/slSYlgtM/gvHFk8AC1IETzbnXyiyBokmZAknbBcNpUW3+jLnxoQh21PZ2ShMor/ObUP3zn0UizFH5yyF2xdl+qRSNI9tGzrgCbzkplYmgHaAVHvUDqKo/71rrSbntiPV7m5TKrCMAlHzSBWtOJas/SkO0/aOBdQdyneykVP/w6leKMBNO5XYg3kSaSd1N3ILvis2S7MvF5huZTO9NF5BwG9yNdJUaWiMqnOzpS6FpWCkfrbMcjB8uPusol+3+Tn6O9zLPo3sdVeYCVMQVON0P+udkesmuEqJUbtSyhjkF47ysOjFlCLmVXLjOWcpuslZA6ApQxtGmv0GPQxs8KE6HUPYe1oOXO+Qi9RBHY/INQRZCD4MnSpgedHBroGmhBSbpOeGXhyjFAFVP2Nge1ZX8p1CZcwkmdFVV9K3qWHaDs40U5Bs0amfsYlqF4i+81QsgFVARvoggO7t6jBzwIYM2p9WKLxdTOXMP7LiOW0OJtvgxAwlTgE9yVB4F5YpVyX7qEvXiV1MDgVPGvE/8S20xTagPb8VRnaDM20Wp9UaI9k5/PAJgQlMo0PGgQjogPsDUbE6MFk9e3mJ5LDdOdmWlz4oW/I3nKNB7IDF1vXuJyOlpNpBK3LK9bXAKs+8uKmY3K+vTL5EUKUg5WKIPfcjaYzk3Y5WRuop1Q8/0LvlZEIXGLdlQ6cDTTPUI87HDFoTSKVoz3BuxljfGmMAC2njGTv+DbA3vkIugqM7JZs1uyGNzYn8gOPmOJs1wVMkBOY6/YkJnDTEF4IXX88RLT2t3IoOqTwptAUkpHG1cTd1qFDuQ0Ctuw0WMJHsGIU633EjKAheLyolkNtIgenouHGaU9efqoC0OXrmpEFEBw+/H6mwln4P2ftyNsy0ZM5S00wHlD6IM5Y6N6Uf8KBzU1NFImG2jMSHp/rl/oB3cF6XZIuKmTE8zFHp+sf8h3U8kcDyFt1eOI/XYe5Tzn5GS9gq9+szU4RvrpsYtASvlZG1bTNRmhB65b1cTbtdSjUieitrbJF285VKRVu/qkQAcWOlM02W7M1GOI6jeV3idBEQzBhd7R1PCgDClOfK4rFktDeDP3iGzu307H0vFWjOEYRoeIYgExcxg2VUaeDY2NCLdevRfaTj/xcbY7taSZWGT1p86gmYORK95OF7Z1fK9FuqShL30xyWbMNFrOBP7v1LzKb9OQ+766sn+k9T48zm3WXOuJ2X2SO/gvHPyRAV81I9ub9gNnX6b/k4taShbqXIhgr9+C8CaqwbjvUrE9VSSY21eNjpWu2JNXMWgp0W1JoS8EDtliuK2I7PiRYYQTkrJys8F2Gh68tZbX56hD5u7U6JIXgJUBbKAB7N3hDlfbFQ+6kjFU7jQKA0Gu4PJhzRsKKAkMpYfbObuwhARu9j00fBu8zNu2GMdIW08VokKJGCIkRRctt2NEZNk9YI9YBat23UsZo4dv0tAcrLix/ycpLyS7mgbWecW8ol18IqsOsH2TcVsnDBmt7pUkFTI5uCQcYXr/g06NkL1ZaIqKV/3BMfnskGU+KmJmtXD2fE8g4+XrovQJ3moKf812Cg8LoAiosJg7wG9+uYr96SpCu3hGlbKMIIqw1W/wSoUJ/7p13RwkENL3vvWpqkUF189iJqwELHjHp2yOxyBLxLLsG0tHDotusM7pI9kLzekYIgX4nqgMr+1Z5yxsbGcoFjQON7tNdyy+2+oRXk9xkT/Xqg1Jnub5IUImFOa8Khkui4Sv+zczQyQGDtgZ5YemeoPrU/pp0d59uQ1LQ+O26Z7MUXgDgDj6cg+wXsAn5lVGuboJlukqpgB/UbLtAbNcvseNc4jM+6TvHmCo2JJLUtvFiDdvx9o0PGgQkkgPsDRRq0Rjiuo3vtodKxYxAsBarlpTGVkDnoVZSf3NXaV32qUnGvLtRhgutj9gORG4El6zILF0gREOo85m1ANMzBcMi/TQBXtvJJnOW5PkomIt0HDeEFRIQq3iylOp2T96GBOfan2LUvOkLSEg1qBa78bSdB7TgmMilbvpGtsjc/JPYsvH1G9StFlGRXEglz80aI6gONKnVNsBWIZGrkFeRp0x1F06rkluGcAAeKESSOw09FhrMpasF9BgQsKwU+oLr7y/eY+mae9JErHSC3JAL4Gduo9jNfjUS8Y3rfVFDVd6i5hMfLG6J+1TtW9IScp25G8Ma/KNAIS1uHvmhrjOD1b3RVtfKfir/WurQGuOd0+YjzGENUC+vHRqeKnJGM4eccslUQfGqwOYHmgKK9Rcw7BqxSqyoSxKVuMunYAjB5BlFZqQh5W0zLEVJTbFzNaAhUzsWz0VlNP2+9WnV36dP9eka/KLO+wXBDVeFMj7Wm+pbys0uDUQOBUe6s46tDao9UT6kFnak/uf7cAb1ZwZrs4zl/qOgpmHGmEYNkNN88XpgPg9K66q6fUTEaCcWutcGQ2JGd10neTB9RwSOq32dH9Sr+baX9yxZTsyOXJ7FhMm+c+yHU8a5RS1e4+aYm7+6MnG5JJauo2Qkl67vvrZSCMG62x89EhQGuz9ZnUYxjjppFggfREcUa1IdUzqgd9TDfidLp1TOgUqB71OCfjDXvjPW9mDJIcjkayI5VbiTUTnUaAIZD2mXkS2GwINayf7JCe6uaVcgSdqjjzMfWncucDXizCAe/7Np8pOGqO2BxzR6iyFJshnEW1RG58Ccawb69oCNpc8OHnpaFZhRaZ9K3hEBqBpCGltXm6dIrdtz1xDLPkMkMLcDzfWxt82O0vt1FKZPwOBljK94qRSJg/1KCcJmGDAs5BJlKOmOSNQj6yRzZuHEQlFaFdqwXz/dOdP/S/9LKfLzNqbucm/iLSJ00e2c7MnBOcgdeM9UGPlziXdcny2X2Kr4bIlTuaMxBPoHkFzKSd4WQg7GyssJsVbjGruV7PuTm5jHXl1XHt2g5XcAkE5dsjv+Rs8Kwdxe/qNdqR7RRDkC8o1nbZHUnh6xjFoyjLFHy1ufLeO4R70eYOYj4mmJqP2nNME8zvtTHBd2Y4s9BBaJfm+uGDIfnmqNgH+4a39yLczGZnF3RRz59keFjT+LHDiju0H5cxGT0VIgXPdZ81Kox7rbf3j58ABasg5awkiTCFSlt2jCQ958HWLwvhFG0JuRfNxhx9MvwxJ81o0PGgQlfgPsDUf0RJ1xe4G2kDIRnegOQfwtSM/1Aqn8MSsLNmf4nj7UEyFAxLGK28Gdl/SFctc80FS01TKsTiF08k1eEit0J8Ys13VCxk5x6Hv4PFtYq6nYd/BJFg1QVuiQtiNUiSjxlUsQztR0qRnovUQoobHj8RpJAQNfXln+ebFSSmQJbb8hS5BlG6s6L34dAe+o9jmyXyZBOs2GE7mqF383Ro/ohSQUf3GM0aTy9+Z+Ux0NaljxrYU3l8Qn/3FSAD4XupO6Lf++s0QBH/3ztw7CnR5iSuCwtdJmlWMDJVg007XEp+EgPir1SRZJVYYMRLPPVTrH9WovclknpQMQhettFU+jvhAnNoiMwipshOlgOHsvsUagePEjJEOJEgcz5xGxWgGCCtYCsQiefZKPtFx7UaeMvoIleJ+St4uMplr0dLn+4WgZRsCAEmR0CSM1egtX5qzDymcOJ8VGlrhrJkz5DVNFsVdBWrRKtFfVSfPdtlrMGvHGI+iTNXjMvbl3EpSID5DEUkXbT0ep0g3P+2gupxfZ8BuUjLCL0LZI6XlcizuRKEt45NSJPw2M9mSl6cHVpvrK87GSxhcj0ySdpVRfg8qy2UrT5UDx/oUEAqVCPJdQ6x6K0J1jkgYbTVLuCSgN9NwJTVrmMsjghXiOy8n5iRYehrI9r6HGANNrYkDkCTkbIlXWm+V8+9eeg/WrQ/HB9lVqtddi/KMDeZXEeV6GThBo82DQuHbMAWvo/ZoLYRsm1Sd120K3gSdXl8OqojB55I75eMa2rFPljdG+A/Drme+dN+VOCOCj2DAfnTmxPzy+/qrrSivrge7M6uLbVdyhZSEDis8Zk297vJibnU+27I8Ar7VCV3h9JIsTeppfYN6mKOX7UkceoU4E1jvG5P4u7waNKwpHYFI1naRSrLPVizLur6RMidSFLjEyDl5DubWuwwccn4qvUe4WFLM28RXWEgujtA62pNwhNDKG//dNjNuV14ejw5UZNNBQy8uID8ZW2WFim/IhQB+g4LXqOGHHOcVNg93rrwb1fInT8y+DkZSklANDCYR7VeGI0KI//IVHBuZVlzziG1D4znAgpo9rkqdCfwm/5bGf1dMWeS7ELdWRrTbTKDwtBJWWdenz5AR6uaGVPyEH63qUiOPgIa1sQSQZIIaHdt6E9eVmJXyvEdHIGUS3gj8JV1W2/it0puRyntJSU7azMrI7J5WHaZ7+E2B06FkWGiQsP7UPQk4vsw5XC69CDkJsVg2L8WetqD5Y/0UQRK9D8d8PXNqcgwkQys9y0o0PZgQmcgPuD/RH8ElCCfGj4+Jbwf7oCxRF+vVoSBHd581EOEhj5qXZytT/vR0+enu453bW5yRK598fkZeBPzg5G1DZ4Xn/iwxGeKpC0OV3XiDgL/YNMNn0apm4Q9gKoakWn7Y27l7IgNcX6Fsyv6JFrD1Xtl83hOWI7fM85k5hkHFkPE64KCkd2sMpSUn6Zowt/ktrzlJ8FUHhZ6fZ3ghrxZUT27exx426PnYCFVox9JTvgXWS47ygz8bkSS7D1OEb3DY0ViMc85pXS4ZnPbmfPb+rNiOxtGeDDrwuXv83bOuvydMLTJDUuZQ6VQ2fhcpAPVZ2QiCwILVUci0oqFi86Ms07733SauXHoqvcGGfEglNXZwzxgfLAl40nskwVNe5+kA1cSas7Twj490Hq7gkTK/7TuhlQGS3YHkUbJ5ib4tp1PKXD9OPBMoh3i0BAiaXZacqEx/5Ws9ofr3kQibGEDWscqJRGfJWoRoBHFYST4OUjnOmBD4JfIgXQrEvWjN+Kvn2AriqNrw0RhPA2V/X8nsXaR/PrlfxE73/I9ApwgOLyfEHLHgE7lKoPCVES7qxwOffNLmIqZboP0d3pxLobzeH9zUoewhgF6ytwwrQVYyRV1tkVyaEBPhCgO4awrTKjNbdvwHKPaBh/pH6s8CuBolrBETfisRLWCl+kNex0+3HdILtOOWiv9l9WQ8dGHVbM8xEFtA1gSogRNiIQ0quX7rx2aPRfdV6g94uh1C/6O8PRclJ65haLoswxzfQgV55/bYKZlhr44Ma6zFg/ZK1Qg+9CcmLJ3j/6QvFTmURGwZO3MfhaQuTzJidaMSBqr1QzCvRBttDFG/rq3/hRBrl32JuWGg01UqXoItBbcMIBUVHjf16qCtfnFIqqZzl0vccmHPS8JVragFUDYF6GnTZogOQPyEQHZhwioXr0xUhsYyBqb921k4eDkcplkhLcWKqFYQzO6+qbLTYKVizAJtB5eJJ7k8jgnLntBgN8Rj0V2mKtLg6iDIRCrCEMEDYUn+oVZOeD99c4te4laI1cB26Tfn3jgCJo4SPlZbEwRacuNpOsBR/BMWn4+vWbmAZCQgYd+apwgXSbfLREB9xoFhFJUlsEQZIcPBVgkcw0+ZWSeOVp48BDaWLFMHQ4XBXCjfoddvrMhqaAMce9+DJWJUC4kjVd02oiVDTja9UCXnob1OCJKdE6k1QT5eshyMbGSf2bEQ2CnqZ2pwk/WIUDKLYC6dg1r63D+0+DCjQlUeqzEh8ayGcmPiDBMQReIwxtpytIvWYKqoE/oqOSk0GymqONSJtdT3p8Pd+yUqND44EJ2ID7g/wT/BNAfQ1YnPDkVxJyG0XvHcM2cLTDANxKpVs1mRKNsjlsP6qUSV1lEGYIjQVt7FKKHx+zdOPmmCqm4oBxmjE/hp4zFEgH/IYKXENuaw2UlijWqNguxZQLquiDSbZqlQs64CluyqZj12BlROrWVWgSlcK3LcdJOuyaMT+koioCaTqp78bw2YaVkKOV3akwRWnFImHO9CnMLIKRoQqEdUN9x6sDbssObdTyYPPUi62y5SYTOB7rORQcVUc0oE5BUExQsBr2/kCf/g7nzF1hFZNsWzCjCWdEyovhKo/qOjK7/eOd0DFBxXqMsQwpm3MrwTl9iiOWBsQul4ywyIo/oop7hEQNUjtV+M2hu+MajtOubal92q5LAM3dffVc+dfq8VleTDZ4Y/nCxBJ1jVgXXPCUAOxCh0C0/pdU/OOLYDBwD5XI2/nE5S1ZjnUuQFSowC4pgKPoySbk2VO/qCQrwTRsc0CjunGO8cdZ7DWsR3sqGOf2H97XChPZhaQx6hR5piMj82lyupFKkl2yGXccPg+AyULgnxwv7G6lh8ZPrlzv59iXzJzE7c5dmdNXo3GIjzhtuQ5K5uIAdz/kSzsY3t1NUrFtn2Yw+XOO94pPhISSRAoor5thPIzPVxp+ZZQDOL1BhJjubAenqaETo9t97zssukoCl6oXje4V2v0zJtU4Yry25ztHpvzEblu02wmQX5NKV/37KWoCQQ1wHxVV8vfvsbaJqdw38hYULGWo1lAfLGnUljtZ9ysODkgJJq8KMLABPp2aVbzyVly4+YHIKBkxCqDYEDJOP2LLhSmy8ZIomR3MJENyzsOqW8rMDYtl1DEnKaSRHd61Y0G1zAvEg02qcblpVF26KUkDUFvZD94LFDNKSlIBoyz+sEwi3PosMXhYrsal58CsJx5wFbRjgd3tDUdgI8dBkGapwENHeAcQg+i05gGRiPqrvZo5mpLQjsI1fxjLrCBsmRGsvuk3BGmqCz7lO1FcToBRomFJPCicovsrYvd5LZPHmckbttPkQmjCdZxWGkcPNKuzUEEv8kvafNETcBY0WuwOhCr1zeYuwkI9CAguY7n+92JUP1VrwR7gLurLdzAMggYiCxaN54h36iHEDUSfcR47ijUipP0cdm7adFU89MSYTJdfSOwIdwzjgKsUbs2+xLQAyzXhyJiEMunpgjgPq3BmQUHiEBID49Uf1C7lay3eYT5fFqsjfSdZgsDGUsLWD56V+pzisJvAwB4o/OZxU+Z7dPylPwULJcRxQXEPtlz5d+1G2iFpJwhV2fphN9tO5+n9KkmDimwPMWAnH3cfQ89HC8vso0PWgQoTgPuD/hL8EllegvRw1Sk4q+QFNEHlHHQFtFZ8Alj52fokY9FxeYY0V4SqLkS4ijddgB92Ja4DQS/3MVyXhfGU4ceaEFbf/aaNt89WhC6MwKVb3B6yagL+1AnmOi1Cz+RzGoShUUwVZ1+2GoDKEWnRR4usJZtJ8GUDMbNuYq15Wmg6eSIV1ix+RBLmoVpB0j32pT5yY/8iBZwwE+9UgsguYGtKMjPY05YTZCFWirhvNuW9UQR4ybzXcI4fZFs7uYEizRgkTGXn57y4pMcA5nKZbnahlyYiaVFwjDWnZFG6CgBGOnkCH9tMsxrCiC0tEF7HG4jlC4n42cuM2XFqDQ6iYVSDkOAgJVUw4B2xlkDegMisWubmmsHUmC447Iv7H6KXD1hG2XkXVGic0qflqi8M59kC+q+tasKBS7JNXXQxNdKbFPZQmlkabatXiOINUKbG6VNrGdtHnOCw3cuaK6aofZY6d2yGjAX8QcI1tNHNTNoJHuvAo0idDFLd2Yjc2mJqdkYMPwYUzuPjxQQWVcoV05mKCPwK2pqho/5w5FM1K1j4+S/USmbgBmgC727zHrOiYO9APgXbgP8ffVkPZng/ZGBfz8Iks22FTP/jyL6ODVazG6Dc7C7KTDAXULb/q0H9WsaHTa2xmqqKVqlkTj6ebZ4Pm2EgtpCgM+u/8q5Xyne1h6yR/eRWftog9Yjlivp0FZ2WJSo1IxoUn79eioBfj18nDLHdW5Jh5QHHvD5euQXUoRkQNMISx8qLIUicw4FKB17c20EikrGyVyC+SmFWeE21N8fIszC6S98mhqXTXKL3RFyWWvIgGKku/bJpndkTDNTIB9P6YK/CUHtK1Gm8Aj4q2xTt3OVeGhQypehYee+lRBc/PoJT9tJJmc0bIfWoeUjhyzaCvDc+VrVIFaSpb6Pvvl63x6CoMD+9zPbc4G8273eGS9dk/D80ya7JTBX4m3fs/ArfG8uS7XkcUjPMsYDWOtkLgT76GaUZlQ8s3xxCzRyTw6GTygiNwN0dNDU7zNCk/zuiQMG7KwBkTu617vaOjl5e4DvlqRh9VcnKoJudcTS1/ptx+cOTFHAvcOUPAF+J8mkXKftZx3N9Fc8hr3GI18/i5UrLn1+2igYwzIpFJuXhiLLkaqaLvhxiZX4P0k/OvfcIASfAOVlRsm4fbkN1PfGnNwVtfndfi49OWA/5KO7X25jnR5wGT2XCIeK/EXa1gF75EfL2FrcxQpO6D7dHxQn3Zbtrr98VvQqgI1pWaPQFqBU/0Om+1o7jE9N2MzlxHocyjBIpFKXZ+lDEqgHf4KNDyIEKT4D7g/4Q/xBRi89kHvQbdkRoquiCWIiqeDaPFeYhVOHXh8+5b+tfsE+vELla0F8Z+5LJHODw/X0iZVnf8xtQjO6qiaCCGsFuxh/lJGlQc7nmw/taAH+NpstbI8iLKefQpMMqnip+pMVYu7q0G0MxsvJvLIZA1ZUJokFsk7PKAKUaOppBN48bIn6MB4LGIEmCEYLIyyPTiUi9ql5c0Izryv9IIxG1yqFuxj8ersmHBkkz1uxspJmGH+sSMUmVhRize8RTqci4/ol8n+q0saRbHjDpOwG2HrUGPD6bkF24e7Vl85F+VRYnFDJs/KfW782xidxUQPnbG3hb0Jwo5R9d/y1ZlFJlZZXG6UWB8UR6lWAsdF5g/wcizhxj5YmNFdacOa1rXdEOGfcqSq0WtJzGf7FxQpqvbnKE3Z74iVSl83E0LG1xZiBAW6ieTT3EIwzmAwh+pdQoBR+KliGb+J4cQPZtXVLB0dF4j3aIlJJm6N8sWpAFMvr5i8eRJpHNT5w2App03vqszTXBu7tJomTvyufgqQMhuvEUjiEg+RxFRDCc2f1dUJIQkswqOFL+AJ0mHgiGSCE5EnwTiGn0ooxuF+boOxBSD74zkyAlMiTMFx9nqN3ncdPnh8W9k/Iua4cp6lLU1V09rICx+R4h0bomhDYIt46OMVCGmKChQmmn/gK1gDpJ3QVneIz0mq8bmUm5TLKubzUn5munc67HoJLpE74nWKXTCHvGVBcDvqZFYhAqXA0FZeGb7sNlgxdvBKNzeC1RQBPugUPh8KmCP8/e48o4CitAHYLbPXPZZmtYork8JazWhsaVgspjDL1nPjwXzv2ukx1/JBOg7OLZt/tkWEBGY+9cUbwzRYiNVWSPOg//rQciJ1robFkHHXNY7uySh7LJOkdTVootqtJ9dO4WTbnIU8HmQGIRC+NcR/3DPURar8FDEXO4M9FI473de4z2DoZkS972Tlkjr9jp3DXRB8Ucxo07SRkGjdZ+O/NcgT8LoLaPiyHkylCXsvOztsKUbasImOaCvn2Jjsco9wvvT5HyLuAd+mNf5T4giPrLO5iYdgad12rEU5WSa9twpmwcsKiFcGPNA2TB1XjSv88M5CfaoXq3J415bW/qcFQDcyJweO2w/NeaF4EFVlT6I9JxhLMPgS0R/7H7/fpDivt9YXW4lW5tJwGpmid1XaOlrB7tVIMpOahT3LUGiYmCx4tx3nMuCOn87FgAwOK/+R576xOiZhHEigGxGbk+y7yq3seyzJKJIY9UT6lnJJE1JKpUte/LbuXho0PXgQqMgPuD/RL+EUPqJJs5EOviUG+cSYpW1Ozy4VfC7E/w3MEUV70XOe74TvWeKAbQIQrvn9h66/gozMcfu+2R8RFOxThPZqx3us/W809SNPDem+w4xn9yGhavWRvYSztYkzZtcwITN2uC7rec4hC4JkVV7cKLBia6DGVR6nRShQIw38ZWHsVf+6yJO1v184FLCf3LeZXUBuELXVCIKGh6p6rVH0Rst87tDqugU5KVppvgXn39tTVaSYOWeID9LIwWT9Oqpo6ZlsAwEaVF9lbjOv4q0Fm4CjyD/iq2AklxK2z7OjJqDX9PHfVz9aHjUq0bpD3UQOrJ1rnDDJ7ZjS+P1uJcRTfodqcw5zrANUwR6+JQGi0WRjrmLgzWFFezagFoAbcW5JjLr+yHwcf4UD0bH/B39aFlecU/+S4XLLYwesT2bUJdImYtzKIS6siheiFQZTifA/xPyNNLY6xcIQYNd71wG1yxNI0QNmvilpdI6vKIqdbfr24RWMUp9A4DMBorleUwrPJoUyJXmN3G8Y18rdRcQSjekVVwqUxTylXxAOReWkTrYkkBMCBkIEu8FROBsf8GiMdfWv1Jxa/8k+ppdDDdRBZC58NzbyLIewn10+aHFECS6CP9suUNdpomzulvNSHw54Q9l0WiLE51Q/Zl4Ye4p46tll75L/Pvsk4LhR6v/AdErT4GVPR/m77LF/GmTa6jj/86UXM4AiSkPXDpCCw0xdAX+c2bF1KUuDIDD8VPbHRiah6CcJKtEH98nulHLvq8spyYa5y2srsOtA6O1HaHfRBmmFMORImC+cb3johfh5kFc/qnjU6CZ2aOu/qN5rlWyRo5OutUH9n7C50Hs9/tb9ha4IP6putlkWEQPiCHWyNNBISfjxTc1WAdI5Mn3WT38XbYRoi84W7nUjDBe5e4erquMQSeyK+HTyzPXl5OnQiOXOX+AbKo2JDxG+I1SLS4klRJr95tKEbXPxLjNgiyzYHN12q0kM1BzmOFYG3r4FOJ3gcFIMMb/J8Bq+yScA7o697PjkzGOfWdTHvcuwIkCcu8mzsLkrTezerpm+K4X3iX2SbhUPIFbgVIDvOHeelSm/U/bs+nx5hiI15kQwcMZEiprMakHwHCNK0Cj1+VhFy8mtMHg0pj4iZI6ayi2quazGjO+S+FWAwaPEJlx+7XJWl0GpGgjtYzW312iO/bmuxRxfy4KztVfRtfoNnaRMojpqKPAfHX43tvYrIKRolUl53i3HKxJhVrNbR/hYbVWK/MGHfV9gDUN14ZCXqq0+gRfEo+m0UgrTMvTnibnpC6DYpFBWyjQ9aBCsiA+4P8Ev0SUfK3K/Wjjf3gxn8Y8vYxcKCCVnAGyGUgC+PZH0/KGtZBdFEvH8tAaTBwGfp7ieQLvamFpAYTPYO/Li02XaTMhlCAGm3g9NMqHOH04zj7y15uoJgJVGxYdYDxo0q/RlXR3e1uSqvDZPiFQ92bKh2ExgMT3ipc5VO0YT6FGqTccwDzL8pW6ARQKd9n0JcbQiDQ/Jdh3rW6rR0NekjmM0Js+zuyjhbJ5a6D8IgsiWdflHsO6pNYIOTUXWpCC95gaUVb5fp0umW49beLtzzwJxPmjbD50KEFUjT7HjFD48nxzJrdgXkBpFtCS3Pii//hrzJMpbyclOi6pWv3asPKaGk6/3/xjuScCSlts8Gat+eFjXHzFplEdQF8TOsAsgRHShiOZMM5FU7xU0h4TzjuW21xlYoIEURJUxbPRIO5bbEE4VEaJV/tUYA4JsDGzs9MVcp6Z/kLk8tFKmmZUW6IhAqPyhU1U/dWAIfNDopHkRj1kIQ9+h48cm9nm2ka9CEdopfDBesbQaYBgFPuDA7rFY6wIe5hdQArDLF3eMRIYV4hzX7kG0nMtxUjh2TgmQhlsBi9mkXXtH7Tm9gKVJWedOYOCZjCocI2mq7Xo91UyvIqyoSFcr8D95Lf0GngAQQKVnoHUzYL8fDd1JKJ/WRSnz9STHjLEqftLvTrmOxS433wh8TeVHy9DxAlaSFtpyrwKgC7heoffMCP1ZYJcGzBNWXATxFLupOjuFihcuyCdqV0n5xal0c9NDyl0jnBqWCT04vSeWgRBNVGF7EaGUg7Nwb2jdIuzap1ZMEUvlVnfnWS4/Whv0pSUA+9o4KpHB5QIPXCrsm9sj85piMpv9dT8JfJOnIRNVy3mlpc2lqgpfP+04zCAoMTbwN7Wl5pWgeXIsH3Dvl1Eu6jBQ6QtEbdF6gbLvgZvBZnxVrIOuB6BXgasSnRCtrQPKLA+uKnt8kfZ6/fekoAkYhh4Km7YYof26tQmS59jHCMBy02UmJ/BuLAdc3EB2u7wPhu0l+wsa/5wwv6sMZ7yTyuIky/2DAxU8aEBBrFKQqi3QXXbNiDNvkcEzyHPhVt5wT/XQJCdNe+oFkiMRwsU1ovTD+rcTojJG1HRNkiurvEz3yd76tf3ZVG2OeJ8VoKpPXlyih5WXlSo72jOxrXp8vDAAHX8m2PUVycDKJxBQzenseZhk6CDqFlFMfdC7x1u0E/QtZK//2oEZyQu+K18Niq7rhJ6nIYMsM0vDmAnKaiO4+ISuPcS/hmlIdc5eTrzVDU/fzsy1ooZ2v9BaxFJ5hFyWBmtsZ1o0Q7gQsEgPuD/RL9ElF6Ai8wpoa/Z58U3F0HdvH1hOUatpMw/hr93ugjh+ya7oXrFs8zCUUn5/fmC7bO0BM7DBqzykT2QrIhJw7RfGIN8DzkoV/86F/H79GMM6WlgLJbL9Tp8filsbSmTXkjfo1fBkbA0nKXWIaDr6c1lqvUPkM3gEDUQc8QtQng5vq+jJS3TJTR1rWjpInLrQRhnnls/G0REuy7LMfNIBNS6+hsxSzXVJbuvZR7Al+NP2x5chVnHPITSvG6wzNRQqcL2hD+Sjd3qOP/sb+SiInMo5qLHf7/Y2RF+anSQK060xLFWl7zQLywYY9fGN28KkIeWGpeC6tkyHlVZCuD/RGh7zT3vzl9KcgsalOhaAEd6ojs0KF5OTZhlIkO/QSchTAO9CkdwvIwg6qfCNWZFwv+ZQ0LETSzaV9tFLOGLy70qlPZnAMCo2xEKF5Juv5P8XSi6zMiDrU2E+rqboSMXNsjPnI8/uHrgxgDrxR3apTgnWxFtpPGKpWuPxBO2isJ59o2pEyytDFYFcqRrrVIrOPpd7P6DZbDK7Z7MQw8olWA3Yj8A7QyiGo4+bBLNhv3OV/yPt/3oBTAfbP5JBgpXcMu/zaid9CedMCWJxRRXFEKK+4cBUBHtJR+HoV1JCRHbtoeDU1L8+lguWpgMIQBevk9uRCzBQi/zmN01BASQnUxf7TQHsXvQbH/0K8FaahoszCy1Gy39ASN7RUmJRZYofKQFmdMrw7nLf3r7w2Qw/+vjTgqtfSP/nRiJ1fOWx1kqMJc2AUs6FHOikxgDAPwEJMdeefYSEg5CnexvYd5KHizU9fLChGn0B6gJ74DMwaIGTtonrMk3r8OfjNMQc5mRwh1aW9xZ/SDt6isyvtAybwKQj1lUr7BqKBBHXogFpJ0Yn3kXVQvPQpBdcZk7a/qhRX/2/2yHmXefuN4RXv9pL0PW2e/ry5oskw6dA2Almt+Qx2DeEyIIm4OxrRirSeBFRkmkKhzebeS+vzKUo+eW9LShgqidwokbZuw8aZwpDrey7TjL/eMSjBc9Ef1YwrJtq+DmVGX+uxgh6aejft+Vkj/BByaM4j++0Mw34ObgKGJaKF0TzYvyDzVArcubTI3dg8aYupJ9luokx9ecLGs+4qYblyeANLic9ewGDnWt4ZjV0cUj+4t9yTwLz6hKGumWhF8RQQnnGzNJJMc07aEDAWnRilthISokqs6mjhZ6n3DOsjd0oEkAb0j+HNZhNYrNQkuavRsNBPU7Ah3EJ10Kkc553piGOZtLkOygrjgyn9K3coNGkBrojCpEgzXyoOPR/lnk3eF59/mNnoz55gLi+Laodx6VSbUCsef0p4jsKaZj7zer7JumWLnTmp2vXbSga3/SRwaemcf1xvZgcrS1oT0q6XmFu7OS9Btbo2N7xuSwk0hdwT6cde2gQdhhBIeY/SU+vIlo0PfgQtAgPuD/hL8EyCFLGsDNVTczAH/KgJHyX7crUAqRLTpfSJMeMy4YHqvxFQ9nqDLwqLpIfMSWfL7ZpsCw7ab8uY5UmpRSyMawNz5C+leS46VoPq9sZjE09u5Qekhjuzgvm4OyltuCeClfpzlhihOUw6vOM9Tx4/coc8JKspA8dwnHwAvE8bPRu4dmcccV6b4Upk/jtKvRgVBmiKBS/lucqrpYXrM8yCCsbgNdRbze+wsC/11e/AGMxRPH7vY9IlV9SRDBlyS3L47R4jKtdywo0WWoxYUgOO6uXf7gYMGvv4oK4vKhyrkpgMOWDl3EossK0eNox4qYGJVkJvcUdmnU+/V0XkWxUhkyISCsUPmD7rdt0z6YNX133UeMSGd1IrNuNDn0L19yWJzHQuKl4OfzhKfhalPT8dbTPUD7nH0EWJEkGABsjKXflbsxiI9MM7JUGG6iFzKagycPfetnPuAnDSpSFE2oadg0ekdZWIuIr1SlVQ8bx1T+I0qZ3FsL2khSwkw+1puqfgUwT8bNUcgv8eN2f25XNC31xVHtWFFZgF7GE6uY6ALSUNjfcw4ZDi3nmaygRSRQuvIbT2kz6UcKL5EkrFBAyKSzwh1T/d8D4ZJHPvsenGyJaFsotNZYGWyMpfLBgs6H61pjuChuyUrLH8H65PKn2IXzZRouvuz28E/F7nCUcKfLzT8GGqP/SY0KyPXwk6kJIjNx2bsrleiy4rH8xbsekuPSjwYFffvs23Q5JGzr4d3T465sa3796TnUXcP7uxmcgLZDdBJepJ3JxnGGT03GnV/JfqKbD5hqUkhD0zLIH0orWyGoR7KptRXYsm0inoZGwz5kSSyuQLLrma2CMoIcuNM4Xudt6HirA5DytfZFSwrhEeNkMssgAzpw5YwPGOAe9smOQCUYbwrDr3wgQszue3HcuENipsaaIQ+L3wjxYVEn6TX5fH6cr4QAcpNEwsuGSJhkRv5LbaYaQBgBhEGjRJxl8xj9YxzfEZyfI2nFamdkqXP4YkX0Nn7R9U25oPF5SnlzvOD5F4h4F/0ouhhJVmEvoS1PZFKmCiSAeJzvKzEvIsO9n/4jkiA9dPJRaQuw1pQSJc4JNxfeM/frqDVoqyM7xUp9s0xFkZDoFsHeENUxn3hvEHvHUi6GRnMp/fmbyz5yf9peblw465SAMviUo3lLrDu92iCoHY1KfWiW3Vv2pPjfN1UkEujQ2amqJc1DUel3oQ0r8xzl9RCExFV4p80qRh5AOOGsPLlAii5embss7DuoKbtwoIqPuERNaep6qqHsMiWr/2t7WLyEb+PmxBBT5d+oofpQqND9IELe4D7g/8U/xTDGpVYhyAnOaZ2Mr9EDsYEYYxbng24Q8zxa+Sj3SD1BZUZr4UeVa8YKdo4thxA89OnwtV6XffbaViGmyalqBc3etGJOsDnhzmdpQfmyW6qMUBzg14J2S8F16r9V2XdoBX0Cowofln8aTe+gSckhJBgMe0J8+PpjRDVvvkhDYCKG6hM64hhMquuSLfy2ZuZa416KDeg9LUqm+MoUlDI/LMHYxS1Y1gCUB3OKEtoW2gfkXzJHz4uf8gfFWU6CUf7IXBJa9E52CEYiUNzrge2RSAuv+3epP/pZe1uCM99ASuE/AhKnFYhE8hY+mDMED8AWICCl0j6nnEdKSGmGAbc4yaAQ8IUmd5aM73cRVl3iDW71l/HvXehEzch8G7XdKL5aGhyHfUDBoKeD/wKUE8Qd8Wpd3ykh+/i3eaLro6hCRVAOhzejMWjF8ed/2ng3tF1YsAENZwo/wswj0m84Z0K21n1ggzoI5UcqqhYimz+DZ2Di1rqYiq4sFrHoA7qlRNwCID1m3wQz6bq0wnh4nkqdPk2ANJqDVa5FGoGZhkKkdWwXN/6AH5sXP+FhKmCBNH5gXhR7Q+W86rVlVNzXwT/SVBkxRIqQ1f4vItQ/mbzKXpKnNBWR6uR7LiMWK1rdyJY3+glmSNTvvVjk2uzfURDjuFz3DT9qu0Zrwf1H+VI9F87rdCyY7CbyMkDaqM6ADAGJlCuoMgJwYops8pEj+fTjlVp5RAaLjNk9SzjFtB2Ze5/v6vfw+hnB9FDJvmRuu/bXej6PMsfNvTmjWR3CBwByVAu3zUX3JtSgH+7OqgoMwhFQ/lWlhsOxahHPYa17UKRWlH0kTrnXee3LfUdWZHFs/TlfpH2TOjGC3hFj9XtHgIJH6eHbzM5mg6AousRZvrlwAQqri27IdpnOX1zJ1xhDrvo17c4UMo9oMYaDLbQTyK6kNYh8QJExwRFcb7ipvIoRUOx81Z4AowxDIcmLzf+y7whAIZvFNXCRuwl7P1NE9aEQKgIteMw2R3YW1NiUiM9NSLHoBS+hgRldmp8L99ueFFPEDTQ3Xmvg+U0knqFVXa2o9V5XMdPCHHxDikPGD66jC6UOPYSzQyF7ZI51TbQoii5TAWAYTaVy8Oe76XFRyCEC1MeOe/sxtFEcqz5Z3p9pyA4NA1C/SnMZODBMsCtsxTbc1aaZ/VfP5pgLqJwoIWGdCWcwOJGvfDI7kqHnh0uEmeuvtx6R3eT1+nh6Gv7q57l2ptfHmyv9U3BOVKWHO3S439WUu23WaOH6C0rFXPILiIUCVQH26Y+oZKWORGFa8mPDKNIMl0Fe+fP8u3zJCWpiKwRF0WEn02+xuejRA+BC7iA+4P/EfwRgV/5cGaRDVn9xMg5Dw/lLkDBPhaahhwsYMZXIst7zZ65C8pQoci4V/Bobp4VilGFnVsIEV0aBqPt/mnVm/nT8v8WJh3plP8wqgmK7AyUBylv+MLU9n7jEzVuyKPqhkb+Z67ELTGfeud/Tp9NEtN58LiuoHVIejEyzQTPLiJ5fpvH2lskw0X6EomaqfwZ60gYnivsN9zWdZX70y/jNXFnBacRqEs,,,,,,,,,,,,,,,,
