success,timeout,failed_images,failed_audio,failed_video,trial_type,trial_index,time_elapsed,internal_node_id,subject,audio_id,rt,device_id,view_history,stimulus,response,estimated_stimulus_onset
TRUE,FALSE,[],[],[],preload,0,8661,0.0-0.0,rhjjes84mj4eron,rhjjes84mj4eron-2024-02-16-03-41-04,,,,,,
TRUE,,,,,fullscreen,1,11212,0.0-1.0,rhjjes84mj4eron,rhjjes84mj4eron-2024-02-16-03-41-04,1536,,,,,
,,,,,initialize-microphone,2,16761,0.0-2.0,rhjjes84mj4eron,rhjjes84mj4eron-2024-02-16-03-41-04,,6187fecb821dd7bec03e1584e9e877a4ac0b9e15d3a8dc739f8fa97c0b72129b,,,,
,,,,,instructions,3,20749,0.0-3.0,rhjjes84mj4eron,rhjjes84mj4eron-2024-02-16-03-41-04,3988,,"[{""page_index"":0,""viewing_time"":1075},{""page_index"":1,""viewing_time"":2912}]",,,
,,,,,image-button-response,4,25260,0.0-4.0-0.0,rhjjes84mj4eron,rhjjes84mj4eron-2024-02-16-03-41-04,null,,,images/schemes/movie_scheme/movie_1.png,null,
,,,,,image-button-response,5,27971,0.0-4.0-1.0,rhjjes84mj4eron,rhjjes84mj4eron-2024-02-16-03-41-04,null,,,images/schemes/movie_scheme/movie_1.png,null,
,,,,,image-button-response,6,29777,0.0-4.0-2.0,rhjjes84mj4eron,rhjjes84mj4eron-2024-02-16-03-41-04,null,,,[],null,
,,,,,image-button-response,7,34281,0.0-4.0-0.1,rhjjes84mj4eron,rhjjes84mj4eron-2024-02-16-03-41-04,null,,,images/schemes/movie_scheme/movie_2.png,null,
,,,,,image-button-response,8,36339,0.0-4.0-1.1,rhjjes84mj4eron,rhjjes84mj4eron-2024-02-16-03-41-04,2057,,,images/schemes/movie_scheme/movie_2.png,0,
,,,,,image-button-response,9,38141,0.0-4.0-2.1,rhjjes84mj4eron,rhjjes84mj4eron-2024-02-16-03-41-04,null,,,[],null,
,,,,,image-button-response,10,42643,0.0-4.0-0.2,rhjjes84mj4eron,rhjjes84mj4eron-2024-02-16-03-41-04,null,,,images/schemes/movie_scheme/movie_3.png,null,
,,,,,image-button-response,11,43838,0.0-4.0-1.2,rhjjes84mj4eron,rhjjes84mj4eron-2024-02-16-03-41-04,1194,,,images/schemes/movie_scheme/movie_3.png,0,
,,,,,image-button-response,12,45640,0.0-4.0-2.2,rhjjes84mj4eron,rhjjes84mj4eron-2024-02-16-03-41-04,null,,,[],null,
,,,,,image-button-response,13,50142,0.0-4.0-0.3,rhjjes84mj4eron,rhjjes84mj4eron-2024-02-16-03-41-04,null,,,images/schemes/movie_scheme/movie_4.png,null,
,,,,,image-button-response,14,52261,0.0-4.0-1.3,rhjjes84mj4eron,rhjjes84mj4eron-2024-02-16-03-41-04,2117,,,images/schemes/movie_scheme/movie_4.png,0,
,,,,,image-button-response,15,54063,0.0-4.0-2.3,rhjjes84mj4eron,rhjjes84mj4eron-2024-02-16-03-41-04,null,,,[],null,
,,,,,instructions,16,61522,0.0-5.0,rhjjes84mj4eron,rhjjes84mj4eron-2024-02-16-03-41-04,7457,,"[{""page_index"":0,""viewing_time"":4711},{""page_index"":1,""viewing_time"":2746}]",,,
,,,,,html-audio-response,17,79708,0.0-6.0,rhjjes84mj4eron,rhjjes84mj4eron-2024-02-16-03-41-04,16049,,,"<span style=""color: red; font-size: 24px""> NOW RECORDING</span>
        <p>Please say out loud the list of the actions you saw. The actions can be said in any order.</p>",GkXfo59ChoEBQveBAULygQRC84EIQoKEd2VibUKHgQRChYECGFOAZwH/////////FUmpZpkq17GDD0JATYCGQ2hyb21lV0GGQ2hyb21lFlSua7+uvdeBAXPFh4ccUjbEDXqDgQKGhkFfT1BVU2Oik09wdXNIZWFkAQEAAIC7AAAAAADhjbWERzuAAJ+BAWJkgSAfQ7Z1Af/////////ngQCjRCCBAACA+4P+NP8JfzgeR8Vtn3MugN48kPYWmWT+cCskRiJzmaCk5Bn+jkH+5u4+ybeJWlfuJArvZ5S0Gek+vbz60k1CnU9wB/vUFmtTOmyGn5kprHpfKhShCwuUFCFN9H9U7LWhOQJE8sF8qhintUDN//j/woxZ98hKR34pwRZuzmub4RHHzQT6d/muUOy0GuXuSlLy4ZyCLESJlGimEsBajPHgT7sdtK6OxZY+CNbJytKmV3h/3VL+Afi+JOieg7uDxkD9C0jB3HVsMKxd+8vpFQXHC2ftEQcAAAAAAAAAAAAh4lWPkkXUOT9eubiyVmfldzILK0vN5dGEUeQ3d5+J7Vlu3CwzuKx6dx8dhQbpbZJOOsnMFf5L0z6Wy3OT6V86OQ0cPkWG/nCCIYYhLViuV8BKu9Wu8xu/Vi7zyUOUu/wHc2SYgegv9QaNz0az2bH3fPERlSRh8Mz0LXHGkjVBCDG9Xo96NIfC4mjk2vYIckBSZti1XVLRs/gXvPTgvNm3tDhz7IPjIRt0asc5R16muYkOWGTausuOZT4LzYpj/UTkAkXMYlf+Zq6aLmrhw7pd4pCDHo+YZInh6jTU6cNCiKc56FwmsPLn9uAMPlWvJTf0Hf9B0hIMGtc1ev1MJW3MprS1suoLVNrCng+//dOMxNUpSWRA7SDKNpXiiR2vl0eavBXFzGg/UA0aC8ZLtwCd2Fft9ftKoIPua6kAkCittR98YtV/ryN/r+/dJaFFWCg4lj4Ln+FZ2tyOSLHO9SaicbftQXWsobFCgSVw7uttHd8qZmAQT2+dpIJQAdEUixU7BwfIg2k0+Suuxr15VstnYiwQQ6al0G3NOQ++VmPUDKhhcWK4esMSvRE7uHqN61Ivj1zw3AlqPPVIMFsCe4/ukLitUdkdtydSf/pBxq6F9bhOkdKG45I8dWroQo/RAaZAQ6u9DW1MwpJ/YlapqpggRc81uBsIxr+lGqxXy+Am46TQpsO9BdAzNvIv6NrmEpR9e7oL+q8oHbMfQ+qU6Nz3hvIZ/kXmZlP1c8dwKxDO7+a/IdmWTbusBpwbsKBXNVgvoISjZzrucjr6USeB8xg49qq/gzRza1QTnxjJwt+GR53WU5kPgDxiw/uoKVtDcbtSoi/su3EAxWR7lFFZyHhrVdybkqE3XFzpKttQEtzeNxMBqFEQzZr0CNteLxSYqcEwBISv9ia/bXmRCGZBMGjU3nxv2mUYiPg8BRH+gyLTNaKZzJoQOibjdSd5GpVGuCO5+OoWLK0S55MKgsfWgDvDl2Q4y7f0+fdH7hhMhWpBtADpNP09YAC1IXqwacR2jaz6GF6ZgM+8pS6xLc1RsIXTFGReIfOopOYxHzSM30fV1bKqWdWoiOlb7LGNmIlXsgudEJdF3a3S53pch4vyrKajQ4GBADuA+4P/Cv4KUhMZKTYh85gcvrN7A6YJxs5KRwm3nqBPYgUN/E5k3AC0kRURgcxEV000jVlpUN50CbjsCmYrcCUzGFKEt8/H6Km1Fxk+yOmUvMVxtlvW9DAvL1ExbKvzC1MavRaSFUYJyZpRksEJKXRwOnjRUTqMW4hrsKngzWyK+fATQyQTMjNPRX8fqLrHISYnzlkzKlJCaJYgBT8Dlc3FupSX9xq+cF8n3ju8RE1StO2eyhw8uqA93fya442EH4nDcylCfLKESmcCsJJunSkheFZzHSg4aB2hEBgRo+lKJZU86p6q1Y6zMcu9JpvAnqQ+mVsCY9QoKSoyAmSa9rBudsadEKe0YYkSpMYBBTxaiOoePK2SK9HJJ/+ZSs5JUT+lZFu/NAgBuI9EPgKkS1okCCZvPvHFCXPKg2ANd42mu4yMWI7kyD3foxe29pc6sSqsHpP9JKJpfukdVS1m3mm23WwWrB0b6FHAyvAIi5pjRaem0uqg5L5foELn8SG1T+AoUVsiczA8NjRVN3a2uUQe0ixmKOc+/7rIY6GhuEuOli9eaohzoH/kpQK4katKIS9qTM+sYXFxAsxe2xVX/1aus2xuk0QfS5LsKySRc90bjg7c/p/ALd4a+Gwstm0hh/feaxHmQXUb1lN6QFrkqu7LL3UmEeDDRNfIxSm9s2OLGTdeVnH/+gvMRVm/+pEnw1z1ejXQ8eWHquA1hgJhfjKp7aT9tKLA8RNJWkTqGHTZXhM3pmIug3v+Neu/IWd/wuc5M4nCoscV63wxyPJXdGvxY6Nnh1HhdllF3469DU2v8h/UDdFeQcQMSKKg0sBtNj4BPCWSq8IfYeC1pIsetxraXZDxRmbOXF+sA4PSYXwXfWzsMfb9/4RQJkBjgqvA0AztwlCOxWugWfGvq5VLvaBP6XW14/MV+zwTLXyAv+K3HPGXJvwlkC5d+1hjnfw2//sHu7Cgx3p2/2E2sFzbLruHw3qwvY5vFRZx18zbWD0GgRit/haIv3AwCgNndAYBWB1EDtMX42TaYTE7quMtRfMjXem8YxnK1sgriTTnyhqc8aSNiLvndFDV3e84trayQq+oyzbRSAgvyJBOnQwGwPmjEubWdSO3fFfeKqtacolXUrOlMJcgWOhFlBRQoVtsnRllssCRpAxHq2gLx5UcHNaZls/nZFUxdJ6gFFB9LD6jQ72BAHiA+4P/DfwRWiTQTrbuS2g8ggTgHB6A1K4muK92j0VavSVATvuY7l00B+zxJ1Cj33kHScJjI7/VNB4xZ3KxrG/tT0DAw1i3EHCbYlt9zSo1M3JVRvW/WiXQo/p1SuoYcZFhUfyWzrdClTbtpC1MPiqwhDDRuVZUqnGIluMgQ+myo87YlTB4XDH9UJ81IZeaPmL5p0hisx/M8wOHYl125QRnpRbsWiZq2sZ4qnUEBBr39i4yNk+/KuRY4m0VfI8D4Do4EflBtPKR9MGYDf6LtKSbypBZpsTWRRb/4w6rcrsZUIpi/n8ZiygYTESUg1n4uix1pbw9xo3snJzTxXdH6HBsWElCT41KmRbiiKEGeA5V7w+puRgyCceKCehyGo8e38C6tUPE11vyOH+dukL0XzomaFsVf9fh/NFXTlHt3dRIehUZinfb2/GcYjcaFdVQ8KaEy1SIWlTOOrO61ju3vGhU3H1FUN/GBQlpM7vh6g0HpgkQmsngzDdPJQp2FcI74RipDexPbm708aDQ3XWX8vFPLKqfT7OlCay39rFuvvBIpCC7ZhY9VpE/BdwX1XnVBuyPJm1gAD7LIg/U5SeDqalxxRhwjluAlvd2hODGe0HyVaucBfxjqhCUWpTAhGxW6k0uDQ0Rtf+OVDHypxxZTbMJewxzTqbW7nWfNGJ4zN66vGECFqauFpVhj2I4xLYyrVzTcO0VJ8H8rCe/mkaLgzsWujakToHtSBiM7PH/cHXGMgt3TT1sG26hqa3YHFKLjCg5VYDbmzcmnrc3da1Q8lxJCxT1XBg0LttaXHP/kQ8Dp/AjN9mAfmBHBAVStfj/rtxqRPY4ApemavlxWnAX0cOdgqy+eCGYA0jbE0S5lhBLkJeNjrock0Dqcc79spuXibRf88UmM1hVnZnyyYrLl3FPb4E9ZJqujve2Wpj2iCCZjtGRPF68uu3bYjPJxzrJ8OnFUYrQfNnJWA9ZpRuVWwwBk/eMp/TY7OEoOAW3ZcVqwHI/tPnSZDJFg4QskSFjn27oUD33y9qweHLcCCPMVBAfxAZq0zQKR9FFjdpIilgY5WymRf1FFUju5q26lLa32xdj2X1uoPNOU9ak61RP9pYJKWx/r4OVnG/IffGQ4vOUZfUBUswVtuxBFgAwT/5fWsQotl9dfGDibZOrY0wRc0K9wY0IF3ehB85yFtIae67+sHa3zD3OsozWstV8l8re88lAPC0pAAuJxCCzwvdIo6NBtI6DbVKE9rxVF3PYWldl3RLYptMbIzheR0ajQ8aBALSA+wNajOkLPfPHeTzMWtHv7GGWD7kTBn3qqAMkQrG94VHNcEHJ2ZQku/iAGYBNtGHVy9EfAmEIrr1A1KOyjhTX5m8bk2TU5Ax5oND+BESp49Zg3AV8nm90ewA/j6n/oRmMRcId2lCtgUHqjZqFVKulXkIsKNlNYnH9BrZlmgBoPhP1A9YpZATo4YqCdpM0RNern4GitkeRdsfinB1YDD1sRN/HHsnleqyeSDahT2BC7OKN4APekJN/mfig9sC7muhxFcnsvteW+H4T/0Q05L8n4ac2pS/xLkES8QR/uA+4RRekOpl+uKqtUfEEBRjOpt3j5NGgNYcYpMbjyIeS7bhXZ9e5UFAPBd3FmCt2fi0Hw5RRfzUi1mEv4kdk3bvQur/CAiC6tTA9kLmlt3BTxj1jgwfFfz/dt7JfgLsOimOQjdjuilIBklk/kEjobIjXDp4d0uqyVEWy0x/suYCtYYKPQcrmcxqlwXrNrP074MbjAQie925wGutZnwasKWFyCQSt1qtt8NxlGUSIDrUuCDn59wNgyxpBLBhdua4yT8duqPZcyqfItoiV4eo+JJEpTK/HmtGSc4cvfsZe04FtlP7uc/OidKRsWUITcXc+rVRzEWVLJPZ8T8ux5CL6uFVucC8jq5TKc1jpaZ2047hFDdKiuNYPAOJ3d0VsiYgH7MZDAGA7fD2v7HX8ihp2Z7+fIGIXOjiVBP+wd+ueibd9nHYpvTwECIMhV3iKyH1UpNguTkB9lnbEIoYhj6hw5Ko4S0sIa2l8gBGlzSlnSGPfbsiBUVOrqKZLP61KIPltUfGNtT/9/T8Op12o8fMwc+DwXz04uvKMhZ8oKLB9yNKqQ0zRYwTbWjoiYYT4vuTStqlY7wJJ2mWMlIuuNwTfS/eFZPbLO1/xP2RaPr9O6HSvpvDIgS4fb2RhSsHbsi8uzEfza/rSYx5dKgt1Wveq4KCCqOPMa1irxLRgdZ4bOmOlLb8PK04vXXlzSSbczvjZQC6uQ8qdq/kYuAI4G7AH2zhXyMOlvlD9oBLpNAs6Lh86tDJDgxA8Gpe/1c/v2XRQkwcr7WLLjXokUs/5YypIwhqT05BFbxnlXIHswz8jcjJBpFBR/JaIGlAHUjF40q0sBVS9nImflKnNaw8iTsrN7kzKuN5sOkiwF2ouvOsWnG9l2PLoniomI8JhadJ4iMTJAHHuubNXu5T9X0esyr3JF0zS0ljxp41lzwPZ8TGYajXFyBzjo1J/K2XnxIZ5KEWks4doADbwbpfsIc2x75AiqMnudn//6WejQ8aBAPCA+wNTretEP6zsEWZSNruxb5PbaVU8le4c2AIZY3DfNt9zKR4P0j+QmW4HC/Lym9DvaV7XNFBRux2zv8pCdVWtuTGWGAfZYt1StKJwmihRgDY6r8pY0MoctipEZkYLIoLwaChIJvmHZE3RFLR0PUy+7lXqR0umXPRsZkQCjOlbrFNVT6sO3A4x9DN+yrYD/KDicNji5NB+Mdt3Xqgf6UW1r5lQxDwFu65zGUd4MNgzBHmhI6e3ArD0m9F3l2Oe0WStPvVMYnCQ7++4su4gOj8wMSBBlf6nYyqM9/zD5OO54YigAG233z3Y0KSZs+DpHLSlQsUv5ZL+7JxKLVEf4i/94DqSyiuRLSrR9Iro9jqe9I4UciyqmGxlfVj/Nb0vCwvQWRq86m/Ns4IFQ/kr7SGn04XMCDICLTo9TDjzumMNhGnFilGMKly06BWiTiDaHGL9GIXA2ynv+P1hElDTAccjd0dxbhF9tGvElXstx0AiOhgbC/W/ANfsBNBscu/0JlETcvyUG/qC1pVTZ6iMiMhXDiD6lFxRc05KG4rqq/uUqbTGc6i05fwsupYnyVe6dNfqCkMk+vu8Lb2LE01WFLj1X+Tlk0e6P2xgaMPu0WNrZeTKPQK2Z0iq6n0hRuyP9kCj1xMABAeNfwLjVeDFunznaTUvQnLZvmig6NKw5gv1n6HN22+dpbdfofM6yQTJk5pXtbBGKihm3sLFPggHv3Wz6lWBsxdx+KLHd1j+zGh51dS7PaZfs5S0zUQNviVDlHX1EU5NCXhbmCV88UQ067jrbneOm/95gWagOLFC9zdsTGFkoebOTm7Zh90S1RnYUNwyk0SHdp3FXwcfs2qZUxGOQlANUa8YVSfAuSHz2JdE+IIsuKlx+0Mxjq0pwYzX69FXWQP3vwqtYeE7IW1lbbYtTGGJfPgesnm7z3olgtMeLbnZ+m/WVFoQ5OfoRKL/Tb7KWOfUql9+4b4fWDV3kLjKozW9PYe3frO+RKt7E6os94wdETv74q74b9Bk64bp5CdvArAQd5cJasHGTrny3TNX1nusOzAMkr+dP6oxwMAy0LpUOyO46Y9j2mMK0zTnQyjkOe4lth8q5gR+6MIHfA73ypGMNz93aMQBEmWWAVxzXuRXb8v/pQhFvw3VL0gACJqe/SyyM24u7xKeVpviTuo5GAKtsx8U9uCrQg5Rhe/jcw9Odtit+UF4FYEhQzyhz412tfhcJoe2CGcn3/U2ecBvsmxJvm7YA/fUuMMwSwqzPUelNdOpqOXMuVnEx5P8o/ogJVmjQ8aBASyA+wNeh4q+nCiv3bb+8VXBYJ576kJe/Xdlfr9JQo0/PZgJbVYETcy/LoKsVdlwLyNmQLPaGJnNpKOUKvwzhkvl+eelr/KQFn2gIWR96OXI+hAuJhynVHQQkWf8YJwDLfZ7jg/eZ/D460w+t0tDtipUjBvH8MfmX8kCTez6vS759pF77qJcEoZNl1MCCubsJl9el/EE+K6dQh2sv7iivDIdsMPtgYkevcnvF+MlldmGVfEvEjPF7yejitqyQuw3/VjR/6HF+NBRN6OGyEO8fNCbT8swHMolNKeG8Kmp1TA81ouRxy2/rb3qdc1+UGVs/RGA6SuuYdobSqIaY/aRIimrZ0UwD64m1BE8LgjA7zqNTv5iKZcTdXGHnaZybfbeVu50yed6s3qHcoizBpv7uELBJF6TEugsLCcUbtew+NFRsrgsl1J17KUSrCfRbLuqEobnzyi1P7FL9+caA58mSzdmA0O26c0KRE3ioM/w4gpKrJj89RbZOVS9+bEKRdfuxtTgJvK3X4WMtwReTupah9099MC5jvZnuluzg5zC2bzzWVpCdUceksvdqcATIS8gGOaeyxwSCHI82Psp4Z3CS9MLwtx9qQ71vd1Bla+6xdSOLm93X/F8Q6qU1YCi/w1DBL0jvvPbxokLxAK1vUdmNqNdyFgDifeXkmC9HFbqRo6FNmizM1m5sxo1xP+j8yxvgrND9ScpHxXy82nduXPINhBlZ86H75c9Zpp7c+jQ+ZxflnM5Vz7kNy1MWbG0NaawL7aW/5wbIK/F39KE9yIi1AWxHWEjPNUQVdU2NtajYD23DD+cFmhtO+nTjTSh54W5wylRGEUySE1Rmux81cita9dEtDybRR6d8+MDW5W3UKokXcQte15zxps4SEKpFXfqSGxAKfQX281PoMltjCwN+psJGDsNW2ahftX3L5eozjt+xj1OX7oyL6BwFTwpX2aAZxxTRGekZVP2OF51JpFFdwM5enBvr5HjNWvG818RHMwE7/Mpc3xYc4iiTS4l+CyokK3oRSwpOHtTC+haZo9XReuHtiN58JCLYUf+XmlBpc0zbH8BXXhfcuq6He/DZwVmYWXwcW/jFwkTJeTkDO0XNYtcvhSWG1rfmm1+Ke5GsW7VW/nO66MbZa/uamXoK59rxZH5uRedhPPfm9vAMjfPk4Hst0A9JrRcyZRBMMrqpngcc9l4Zit6iOw30Mkd13melykkGFcu6Frusvx7g0NZrlJODoAtqEexG81V6lPjQTUDnOlgGZ+pVXt5q1DXpuLfrdO+Y2ijQ+SBAWeA+4P8Ef4dUns9HGQwDHSlYr1RdaX9BRU5e241V2W9dPEQ6QmGJlNn1g15iU2YW3gAEEa25L07THrcjDBL5pw5W8+ru3jdskj3DXfNYl8+lPnewwdHMxq+KqOCFLalX8Z3jcjO24Ck3JyLS82OxDozfF6IIYuC+hHTyGw4o3BRXBVkWcctVS52eEJPeK8wcvIjpEKePkOdMySXJu+Rh/cF/84QxiVmf7dvpl1MQa7DUwDMkHYoJ8OgM6bWHrMT24q5Ti7BQ3ViBZqwg8VWyPTAB4UVMjtLQFal92qO73jsSUTQGGbV9p+AOOYnLzHO3cypP2etnyy4WLczXp6o0QWmurAmvscWcVda3gt8fdakoeLyazTEsEcBDXHhEtlUlZ9e3YqnkOJgWoaNyz3yV6gubFoQ/NAdKESj3mNC8izVwudSFfu5fWJ5RBQowwOqVcy5Rai5EHj4ZWJUd0y8J9wIscIEK6C2zTwBqXasp2z/AhtftIrVx/aEIz4xpD7svQPDVeu2mQ0k0H2PfSFs4JyHy8Au2xPTrluliXiOd9aRNyKhMPwofUMKLFOeiZIxWuBYLd4Wq5olJqf2KsZTEELlAiJQgmtpzb9iystri2BE0u+SpwwDv7eheNXoTSA+B20+ORb9VfYmdQwybkXtC6q4gq+f/NCSLGDherd4Gc1zxlFHSWRqxGeNkISEXx21V+TYom8qJcTeLFx3uxR8AJnc19QhnQvBySTwI9Wh36HI3Cftch1HKGoAadjRglQByPqNAJHQhBH+L8Vr0DdEnGgMUIHFBfVq9/LSkGdLmWbVOwGEuk5eTHVYU8BIhMj9fcVnLa9jKFJ69jy2kkwgw3qk7tDp+4lq+oc3gPNhuyIJmxO9fJ9xdKLhKRbh1/ubI/zl7dWJ8v9c43jCs4ImLefmtvCphb8pdrRyWlX0fNvjLsiHCMzibxry22pg08WRa+YMSwPwB4D659D9VEhFsKnHtSvojncXdqNtyrCz+wEmziSDead7VSQ/IRxkzCPA6+CnAhhpu6opy2r7YeEYtlpYB3wITrmZSO5HJ/tm9JuuPC0586epH5N5XKe7eADkSBGNHAzQoGs5VI60cJ+P6w6bZnF6UzpKl/nclRtqsXH6YutFFYnr6EphB1PoCSnORz2Jg6o/DuHzac/XblsT6NJ5k1hsLnYe2EsBKvqaQZY4eZtRJbn14mYoJeEjlWpCfkshhEWrs2oJdDt9wJyHYHTUhBp/fsPDi+NTI4UtVBmhZtxZmD7Np9eK0wAN3vjGDYtR29+W6isNHBxJEwXjbzKWnGxzbo0t3waYhtSQZoecvsKjQ7CBAaSA+4P+CvwRWiQ2VVazQnCewtDDiqvkUze4p10N8PO5zTAoG7MJc/QU+Z4pKaWzd35CWx725sJ7NVVSOdxUdoOAsul4NWfyTjhh0goleKB/OTNwl5wUuVRf3eW7fHgC44TpJ7VKd0LMLt0m8OTOOsq7uV6CS+FkX+Hj/o9w6q4RiHk8yK1XpbRb/Lzh8HmVYW5ceWTdhFMOPkuo97CBT6JABnhqQYTA8ogrSJWJ80FypWoa52wE1Bu1PlSK2LGBq02ZVINBycHxxpCsXsX97U+4QdXwoRQZSkOJB6ThBXRC5sUgJseMFCV4qE/CsFfoxHtyUHZH5lvS17u8y9sCdIYhTFdlE1oyXftXyCVlrBFqyRL1xOuPTL81xx6Ny+Sf7eot8hFF6IrNf3aZCrlvRFbpsR/WFeujNg7PJNX4fmWWLi8/l9laLTHpc7taKyA70g1ONjujqHF6nUrkPCOIRo8liGoXAlTbsv+976zQcqS4q1rYphkGXUXUylLjOyeUYvT6lbVPcdroHOma/X/ijiCPEuRxwJCM7W+6AaUlHAocqt4TwNieYXLDOge0bD5YBkxbePwO76nB2ocnTZ7jM/jXTKJk/XN4eEjuoGiGFToN4+UVQ88OznIavpRGwhLtapMwgAXrI4Ddx0CF4u320S+d8Fkn/IafH+jIfI6ZnGrITevDOtxAIFh+s2hGE1coGGEq+MoPmvqx3FHq0IwR4jk8HUiXRy6EfJRTOV82O4CGv87cPLECLdhNdGRcDiEjR6heXakqcTuQD/Fy8Keh9gzGl7k5/6yigMUZs+V9pBh7VIPQbSQltukfvyzVj8BRb+e4HrWvDozL64C7aUF4XcYC+IXeC0EkZqSPE1qiF6fRll9ssDoHfYgzGeV6P/sQWsq+A9FJv6trZMwB9XZXHef71t4fK53zg5PlMBmPWYS8Xlyzn6+SBEDI7tP3jq7EbKAEU6VOB5Mdi1RNZLvKmFrONggE/2ld8bK1QHuIOGF4REof6KlDwO6kOEJ9ei1bo0geDbNUKBl2XJcVdUa/PAmd03Bymq/M/81vg72XuJJt7bV+H/tUxAPP0ZI9/EgU3lWh0Op8tvXy1p7iZzvXizR6eIfqeJNpEZxTIswicWshMBEBUSMI1P2w7JyJkf6EywqdvEyuT7oBBQZ15UIXsrjsjqT5WZfQ0Hlk9jtMPtzzLxmwain15qvbUu59rILHkCvCDzARPuzPJ0zVTAvoGUCwNlRm5MfV7Bk3C8gjp6NDxoEB34D7A1Gk21Ys3pFivxLQRmAsIRrtaG3+AHKgO0Rk68JuOV/JBrA8m35FJT3TjFGjEp9bq9Xub+Kx0azUjBEW+C/P+HBlVm56hvZ7JC8XrkuTxp+hH3pgUKBzbJWP+qUVmwFWVa0Pb8A9i1W/jEgBwPZmbC112OAVCEixdyqYAlYxUZ2zb4s7H6yMgnA8fqeWsfnWdFG6UqRrpWYJGKORk81TQg5+YAV1OUIx6AiiynXfrFNpllpi9wmZ8slYR0/ZKpAfLMOLgG0Ggb3PGh+s2Thgo8je7IBtDpLq2Fw17ThIJuNXcznR08PNv4by98RG21J58Cd0vbymtnEGhK5tYwaKEAUGkveJJMusK0cwM9mXdiQfrx5dCjncloB3tK8OlPldE+8Yn26AG5bGAklpdCRqhhp3wkcxeUPgEsXIrg+Pp7auXrcGKy2shZGaMJyVmhRn/xIqY7a8qNHwZy+DGAX5KWlm6ZseL8WcUNuTobgNECEjj/loOmBYzTQ0Djq9IHTv/EQxmC3ShQmyzfw1/RKTqF7neXWLtL+TagNsrT6eBbWf+uVQb6g6tDcyozVO9mN+NaOa1h6zGMcFaxvr9rgPf8CEpEMjAxX6NtsnD1x8WIhkq60Sr6MqZAg3dvyjJW5TCdw0OfDGtiHDOMw6vfYQ9iqsc+1ZIYpKMHIG/yaqhLt9bZv8174h15oKrjhpsejG+0PNGcdbSXGjowkXkanh8qAkwELmRtuporHSWoukw1SFDVcHMg/dTUa1loTpD6W6HH42xgCNJGkBJaBPFJgsuSlI7DcgfIytMdBKUOzPqijql50le0x/5c5MrDfWxVh3n7UfFWHRzY8VhLV+r0IBIO9FJrDaicOeUT+ro+NecpDznBRmjCRN5mIYYd2PxdT9WdcQDaWT89/E/791bG2XhhgkohZ9Qqasmom0Hu5vsN5y1xbBb/QrotyAzin+F6XyGJ64sH+ho0DdRs40pz5Nu+XUtPyA1D7Vzl5+XX9rBoTipbaeMEe6BBSIi86yB/VNWihvNK2+SQSbCFMMkmJQ1Y/poheUnNCnHkM1kZLFUyQ6i0veNUFSX2kflKYRQrAE6J1QxRQSVhnfA3zXC4qxrwLZkWDnrzHQAixi+m/HO2yvVgeGf0rGagFvtd15druGDFPdIoRpfk3u6TXgI8GMtGtgPzs4diwCKJcsUY7IyKLs8NRzUXkJYhhvZjvCTEBH22mvayVRxRjsimk0eC+Ij7Hforg/ymhRmn8QzNe/jaNLIskYaodsyqXAqt0VIgdiUKNDxoECHID7A1ISP7LwUUy+0NUAMytWK4nZJk8C2J6G0zhqg5FnDe1d1aYVTJnFn4FSOKBlCAoEaZbfLmvIPmLzX1A0CsK34iPXJq1YVw81D0+KknFCpe/8lYxg9hrgX+vwH+SAZ3ZhlQd2on5MKFLTMeOwNq6NaWdPmo/KBIVbLRaLPTeT52I5HfJ5GzHpGg6GvItkm0AWRrnvPywT6x8tPTH02LVV/o9lDasQszbAlGOov6fZkyLjBCiDwGyRVCvW8Kk9v/XpBZQhEMpYzbslCp6haIg+GTnNmkihHdFLfO24JU4fw3BZsEbttROJltaJq52J1hKnsNEqBmNLlfwIjNBbe1mVh322gg32y0NgE/zhC9BVYnXuRsVyIcOAz5elAt2d9n2HxVbdKgxpWecFZRgFWJzYpBIGeRCbl2vlxrvfRWxIFv1MWiFDbBJ+3kLmKUqAyoR3Uo2ib0/0aXdY4kvJEa2POmlCbXtnXRFmlfk0YNFFPPSs56a4aakeiE0Gr/3zk3emQz6DPW+3p0cmltEEa0UXRBjobwCL3cZnn+N4H7+hgHg2Ox/oXmZI/c/dgfd8r3DaT+0xliHE9/Q7Y122Ea13V7Wh5X6n/r9RbOsJPN/JN2S7w0JK/8NALxt1BwVPy1sFPgSyQhKqTiPvCN3QO6jiaPL8zOoJft2Y4Rv3HZLVVc7RL8q2RrxFVqkjagMfpZmr7xftdPl7IsoIEumpF5ngSenzy3MNbgaGC2WxlGI4gCk3mS1TYp9zbr53Hx6Lp8GN8gQ0eKnMEDWqWaKps5WCxz9/jZ15JyZbC4gOuEUwcJQQmJ8nDrefSGJ0DrU7qBFmGfBq54Gr2oOSwuQvvHRnMhFZqTckSupIbrh0l/XU33TVZvA0eD15BqzR7k+2bMf+tNhHo0cJ4vBuJq0tqcWaQ9jBxJCcML2/0KU2PYhP7GX4/UZIiEp/WVRgwBWfFjOMwIKTWHxQH9DwQzSUVHswwhn7d51gcJO+sel6VkUAp3tp3DQKC0NvTgh0wo5MgqkghcaKrlFa0NWTyx5EFgmDSS9paJ86TYGzKgGtDci9PeUgQr7MhBDA5viELPkaUUv2ajSrA9F6HJICoWl7yYfq20xoHhidkbd2hH3s+tkEqpAiCn22Em+FyBsTi/C0Pb09xqxmqlV58PN5ufEL3qnZmma8FDpUNO1VGokvqIR4CsQQChwapIKghuTugy05ABTOFAFRrNN9b99ouYQF/Qn+Wsx+gHCn60NJCfBVKGby5R8FIsToT0EGTqOn64dGhHfZ/qNDxoECV4D7A1GoxBe6p+NgGZXviwsh67tcy7ZvfVKhwmEV4M6L3YJeLCHb0zg4Z8/JAvtI/CjEUwP0e08PNdlN1lbbkj0NsA/pcvyVaRxsMpUPUC6GKOZK0o5bWMzrNNrKSdDimnBBgnGyJyvnA43bdqtDJXxs9KWdHu9uKkRowJgHnOzecr9Cfoz/DEu3UpnY2+jSzAb5j9Rogx9D2/R42hPnKY+UtRBSMNHMQNSXrbspA1R7ijLBBBM0K96SsPebtW4MxmvkCY/zlbefOjC2gBiWMZdFxjn85HgYlRrkzcwQo5+X59kXgpozSqCm06Ns1IQRfag6B/uwD7r44I6XOHVZbmH5YfxeGxHIOOPoTMXoXFZcXhZf71A5sQczAiF1u3ITq36Nn6zG8XkKbJygB3W+23mDauC8bB+Qc2cVpZDAyVmMwzDBUJ85UgiMkxv7m3t3YO+Nvo1RIQm23bEizbbXUT1aL0swANi/z78897wm7garnA4GjAAoJoxHgB5jP/GXe7/6f4gVvCzijS1psX2bTUurqnvIVtSAcg63qS31I3c9bRDYvMfGzZPcrH20VyZqHxkKcsBSGSZvn1puiYbUGkdU7PQ62Xd07c/SByD+3w+QyhhLORO7OUPyYhMZEnhPW81AeC+UH/SP3p1oxn8hdEzeunXGDOVgi6YXyAGtsjFmJycX/bgMuNH5jMdtOxQ22Wpc84J92qNysn4bKZFdJ2q85xGFgalw7nKH++PA4wf/2AFxrCQJASURGlSUlnAFcaEseTxl2xraRFRI5RPbHnzYeaV+pBy73RH2qkWPHh7zTBYRiag/x2JQ4Bj8tg1xJP3UbkG6I7Spr0jKMXMe6O8E5kRRi88qJvC04m9LlkK8hSAvqLYF0xlJwGK6DB0raefVi/H75Akhon2rluCfI5nn7Cb12SFzPInG/McatLVDZ1XEClO85+jI9vJTvZL9XP248/TkVZSMw13d4D8RFjGmLl7xIU8rN3al1HRAsVzI8oZo1yw0ZclpmXBukHOypbbfVAHeTg18ovXz1O9piW0VwOQ9gs2TfIVNHtSGY0j49JAdcraOBq9BJ5F4t1x8G5fKJvItQy0WrBsWrg0vSTCgUPceGPP308kd0kB5kZqDSGwmYBd2jgxY/2nVmQ85duX8vAFbtdSZF64Pop2R74UDwaw59i5x2EeaE0WhO0e9ppAIVfvCOL7rWInyRp3rbk9jteulUUrC1MdlnlldMfZEiy45V99r3FzOtq/PoM7ppzBstJIx1IKxckk7TcIxwnbEK6NDxoEClID7A1Ie6RN8Vn2n6i3R0AMqQyLSfRCGTCEDlD1kkZ5pasVS6zY/qiCJ0QePthcgBKKGsZvlOibKSTRV7OK4SJLwgFPfRRSnhgTpruEehgSE8399SLOBqCWq2eXZMNoWfTLw662JTFzOgFXqMY9/y1xXeX+EowwwG7wmFUEQXXx0338Fk+YSQRQZ4XODDBvkoMLBnuaH2AqA2YlBQIy6arjLxGyS+cO60q2fKE60ubl48VOwPQxbw6CRmoZSsUdbogdr5zVAGRM1VERzN+hcfFs+skjSYCwzKfmMop40pMrwKcO+3VDfXDu0e7cn0dytrLHQhXVUygijzL/xdb4ke0W8j2FpfZrFKl0Gp8X86xwdgVvVDlKbzN+O9bIRX5+gnMU1LJ8tKdvhzDcxV1AeMPaEtJs9sSrB7593VspkC/q8PmeTXnDwKRQmrztKFTKsVugWU/zsABjyOWJfzBgyzDz2SC3sS63h1ksY2U10EALuBulpBb7XfvvPV938At+LAm4+Eo9u39egOK5CBcaoIdHLyMrBn1hsfWjaEDgZBmSNtNLPgIJOKDbESQGEfbH7ZHtBvh0j/6stcduPcbyssT6AAETH1CGYD32Jb0oIGmH+TKfUSlS9D+QwtQkQoRmDsfjgR+dGDcvVrXQ7SjWHthB7+hQ3+3hS7cZe+fCHmDdGH3rEkfvoVVCyHsWjr0GYWcEd5WA4NdAM+eBS1z9vcXgUp30HtlrWhKIckNym/2D2Qwruse8qcmcuk4r0CZnrRI4Vb4LHmHQ0sDpzA5V/6qdg7WNbUcNeuZVH2FFd187Fv2l8xm1qzNXJUv8+o2iIPOVy2WCwzTlb2ZyX/9JmGxq4hSZTrlKMg0/tg6vfUuGVrv8CA+hVeqMZRjGJX/QaIkYrv2+gb2fRMolEOQdBaLQEfoeRoQtE6l7Mf2pUVcRX7S9JsTjkWYj/Qzn/W24kz0ufujEItsLoX7hiSIXGo9U6LPNkE+fy+DqiKB/PROOAULNsTLuPDxT0rI1rPQNE9I+L6xAfI7AATfkxKwaPlzL8N/iaORyOlgy6F67Q89aAUPB53VyeF0tL4BfvkJ1XyF/y17qLWdPrXYII3aJzETXyq40EBdLi4Z4jfLYYqpDAaJkQYY0crQ8xzBNAJCDMnW1LIUDdJZZkGAcHyytaOQGM5HfxOcF9OOQC8BTcvXQkBbbwOoGvzmv9q8l7jNzHcGuImIu1f4K7YWNYG6JItcJAn3kQDe006UYY4H6Wbbiq3Pnkw5jnVe/5H2wenx1+sOdlcaNDxoECz4D7A1qNoTNTaJtNHsgf/0hv3LcKq9lxcjxtYFye0yPCOKFT0KWdoNAn/Z/iFbc/V7JReOBEnzwu7p+jMP0X6e87OFAv6CQHXyQYgo4KwBCW0EGL0tqI7U1hacSLsJsej6uiGdUvYR6OhtYIZUA6SPHHfKq5wcAbX5a4L0umdnN58Iy1e3TMJ2oItbm7cJSYHW03PojNzKds/gr+qEDjcngsuuqRa+Vggf5JXe5UHvB5rFB+9voiMi4XOUSprZOWvN7DsfpCuxm+sx+m7iXkRdUUrELnaCeG4rAM11r6AOP8g7/A5lnBMIdqRNygALXS1nXDFvxXzBeII9ZX/afd3ypDUIkCbQqDuUur6QVHdJDzv5LrikfjI8ONVcj44dKEqkhuuZ8BKpQji9LvnKr8dU9iUgSMgN5q8hn6OQsUhh2q0YYqWbSA47yjVn77+EdIasJHgY4cAUt8j/wgre4v+s8dkW5T3b+9ZeQG+ZvSqHe20Da/nRrh8LfqKmkh6L5FwYExeURB3/tO7OzcLL6rmKzBWGZTvUkgfJSCObc+27Z9jxDjoJ4rBA89Zf6gNhXJmuRd45DTdMlokr2WqBJHuZA+hlKCeowmuWfz6Otz+SnGear+txWDUx2ySwTOzohW8AoOIIOZ5fzbIG/kA1SZW3bvYDhjHKa5sH6dOiCvIFNSCZNvB6YkzmHXs3AzdwQb6AGIKv9ngSTkad8keWLtAy0CpgBskFedrgqP5JEeaRkGOfYhavygNYPIHOqBImfWZW/0+wUsxJjyoKVp1kXDrxmTrTSRxki6JX7Y50CN29eBKA5WlnLUEsuGT0VfyDVp1N7qycdkzsNpbBgK77zvN+7nH25SGSEK8rTgWfX5C5i5LmQDbNp2uD1YT6pruEcWf/67NsEN4GPXi+XGW4/x29JdfcH03IRbSslxU8IjsJe1i4eUjokXgXKAhaN9UpHXndda5LBzyzLDrW1TRFNtZgX7u3SkuquAOUsc7Ho6WgjCo2UMtdcsjyoYR6SJV69dxBK/p062clF92Du9BQLyiuArSwlZrVCvLEVc37WMmEbReC3vhjXDELyhfGwECP8TkA9+7Uwh0ttP9aaLQV1fvSR/wDLo0djrDqq1qPbQr+pUu4HkWdASWoAfIXbmktoAcbiIqsJJoQT7SxjIOGQ8Kb7Kz0f27nLVeLPA6yRW21yM2VTH0i+xJu+dKCYOM3GBdZmtq+CpfI+udzPlViKCp/DZOIsF2O926lj7uBnG0nYAO6vlWV4/7hZDDXwsd05YQhnRaaNEnoEDC4D7g/wR/BFQEonDl33BbB1DI+AOrP45/5CB5v2JBYROK+7tLT0fatHHU8L1wQyhLz1Deo1NiJSBMZ3+6qyNmh86wHUZ8wm53IrFZKwwytzi6Dxi9m0zpg14+4qBF5AcR+4YAoQqe7oDs4d+0ZF9yDJi3a37kFMmTfLiIeIDfVnj+MB6ApVqOltOC4Bdi5o7l9iskGMQm3RiO3M8gsKp+/WdT8q2CLcvOMxijIKkfpcyB3rkpVGFDiaFKDo5aWl8Eh4Ci0Y8thHMdIVAXTYscg+xiVeQQrBoKWYBGmwZWjCQ98Mbfj0RwFMy9hWgBP93HSx/hqwzTIOr3yvO/geupWUaAmnHbloCl9bsvz3OLICWwtDxpwsg5y+QqNx+jbIwk3UtDtTWh91kZLBVUSk4ZYXr+pFa5PDnyy+Cu1yKRF8yXuHnMLPnTlpL06c0DnT68Vrd2/MV1fKdTNB1eOplN9OVDAUlaAyLBLb23xL8mcst22vFbEK+21y67hGSzxwejgAADzLL3vrmvdYdLIeUEhHakeOOD1SxyMRZaewTCuadtK+xzRsH8RNdtj6ANwqzQbSU8Rrd8nG09GMVCdg0vttxCELe+saNdkc/x41yYlC5YJxvkjICMrlYZSY9oFHXnKNUfgHCqOg2C1TgXxjcJEElZBcc/6IKpQ2CyX4XS8+V6PNjPnHXI1EQz8LZIRIcmOBbkHCvpw6XJfVfpwNsRiVko1jDMjepADnqKh7IGVpAI2g0wO5PN03nW7S2CSDilrRadyFO56vcaGdFLvuv+0tsig15LkPUx5RHEVfioK2TCktlqpM+tddeJBedUPlLUjklwVa/o7u0VJ3wsAssRgXVq76Z0FHXeLyl5iCov/t50YwoxSuUKqCyJxjcb304uUJ0rSwnITKlhvDtorBsP3Reb2l/G5PTyVz+CSjUI0spakgMa6JRWjx+NxXXwdzTLmkWMyq2dofHf/iSuB2scoQa02GxK88EsRhTFKKOJjru6n/VxJO3UoV7ubYrseaE+SsgX4rpe1di9o7kZGsMjD6HTwxnN47dRls2NS7U0xRc/m0I5NhocIU+f2gL/QV0cJ0dHy73KHwDoOxR1XsvNuPLFQnkqjN0XrhQPHCKiH5Nsz1Q8mzNpU/659KspT3NJtxfGzTnr/bknBIK8ePPaJlzTV4e/1gNYCiyj5YPMuFy2fcB9SRr/yRKkVYAFLTa17szLrVCL1VtxUUH0Oqup8rgz+2BgBOoWkt7PNnfMzBR7l2yscl3EbcOU87amFQo6i4+iWeLKKIz4gwUvBOYjFFNBvylMqFsaqHF+XueskiOIkK8QjphFVZ6Z0qowYpfZdnD9J1+lvDnjEOHBKYafaOvFwqioMgZ02wkPbC6sKtLi73peyYE3dtgbLp9pXqBIpg2HIRNieKRtNCU9JXB1zFP2T8RY84y4aB68WcdhkPugMpBh9iq79FjbT7pqHvr+mHzlyyk2BaqGtKE64gmhYtBx9Jh7E7y/gL3yfyYy/0pOd1FDvllT1Hv2qt0iaZB5yXd3Gbl3eu841BfC/bqktyriu/6gLvyp4sMFaNDzoEDR4D7g/wR/RFaZIxR8l0qM2/zRP2s57QAqVAy3wALk+ja5g2LlwlKmAzxZOBMWgAsrQj2R3U6YZN1tJfw9vT3QSgesXPouqcyJmnMbs6F6AHefbTcgQ3EDQ91yW6vdJhNCRdf5AhrA5964lfnS/6km3pcpi2U00fC7F5Y2+nC2tR6b1SSg6SQAteYW4E+UdxNAW0rLiaxCEUd9bvAiFhqm84jD5MBWkqhP+kcq0vLraRrdqaF5mP8S7RY5IME51C/XsIQqkdToSa2q7Vlc3Le8OYMj4Psd0qk3hlFyVMNFsilkr20G+zcMhJB+0/Ju3j3qTFpLUM7nUcDSiFN/m4nFPSBJMW+bBaDuHKFwT5rsHD0L+1j3PydAdCIkCTM+0WOG1c86B8du+8TRWEJ9gV8ZypokMksklpvYYKgMF/4LhuSR9zmGzaLkVGQ/l7YpuVoRGRWwnQdb1tg7kLCMGiQSjia6i6UCNQFBl3YvpGRoNtFImvpCw4DMu6YszmqVJA3Z/WE6RcrOTogU2P61yQAd8VU0ozInDad971glBlKGYfZQXpMhUOa4/l62Dj8prAKHgq1sel8nRvqrI/0mJTBcOe8VbQXJGiTGZ2CabOMaducmXR1ba/kO4HIdg0cMIzPxQat06nHvh+4ZQj0UdJ4HQy4T5AXjdU6/FHhqg2MF5vhTN6rwF/N+Fsmp8rZcvaAUirfKrjy3kMMyrI3GC6/aYWjorTYoyJp1QE52pdOHtmZJwQxkb8BXCOSDvk9wdCM7bR7Q36y8WCX4eo3nDT5wdgRM6sorGQn/yQISj3mjgAPpj1vCk2oDFh9Y+mTS1q6SiUo33Lrpu9kGUzSxxnQt7D0VDA7edT61lCfIz11pZ2bb3ZJHrhYr08et7dw4yFgcqoZdujSfympG2s3cM7PHVVO7AVDx+cv4kz4F7yVW4r3JuDSI0mtb1x1rMTy/twvA3kJ2sDYrXci2fE3LfuWWgpJa4CD4z2um6TvR6iY/2hOW3ktzseUwaVU6a9sPCzFSVE63mtaDmWwBY3IwkofNfWh/UadOAm7umyHp6aMFxSmMllATzx+ZUZtJs+JB/vHWtchYPtGCT39n1fRP0ZodwFl4sHzV5eOGXP1bqvm91gxDm1XlJ03ySe9kMgOHDg2MkHJsf0JvzBeAlu37euLIbxUjs0VAkO+ouZdxXl02f14hBDAxyBKIAXk+MXVD06gveES5HBUX6xvSC9UcOA0AMRJ6h0UTPgL3PoCysLxUO4c6aakyANxFVE0+rmPITH8LS8xMpx5/z7LmMyZo0PJgQOEgPuD/BH/EFpDPPSnbsRU96rGfcQ3/FzmYUyz4L+oVWjwVtzPI6ZFYs4rPGtM1ylSlGFtqjeimbzqPCi4O3Eg6/Zpg7RnyLbeXsGCu/WH9etwqbn86YBEjfjaob/EblLlXFo3E/j58NjLeTloL+vZz2vvumZTVHo2w6lYGus3vuoCwBE8RN8Gl7V+PUieRLmiyIwgV1M/Cy3etqig8AybAJZ9MaA3x2kMdBbOHfNs1MzOqIM6rAgY8LojTSDN3v+BQvij+qWJTlw7XY97oURs6V9J9/PupGKZlapwPPQvogjVVy2+M5kRqohmI0Md2SXw6fmdQpNmGiAQxsOf8gOrAZ4myp2PU59C3hMZh4RNZ2/y7i2rfculBdOLSQX+SL4KYINdVk/6fi5d4mK/u45OOOtG5yB0ZfvNa7bBwGQ6CM/yGrZmu2+oQ8pgeI/lP8fi4jocHgpcwnW3n7JYB/pdodc/4Q6VqNCPOmuyHx9nJxnwC9fMNmQlE7o1KfWd5bjqud7+pRo8YUebnmVsqEKME4WCHlOlId5bSjRCoxsokQ7KiWE2gWo12YWeZyOqFxr41tifYJInDomD/AtNvmUi/QjOjUDJ1C1ARucRi1bxG1FnL3Gb93Dd10ojADj/kmBoL1zam/nnf81luunIVJRjgl/pu0z/teylNRjcEHVdbmW2nwqHNhxkWBSgDaw0psYT+b1vcxXyicf/bdiRxPrAMnKl4wY7tgZWdWOa1wlW98RvkoY/qPw+fj+i091iGMWIuskVzowWVCpEOkqzblvOsjl1h3xfGNqCMG1Fjnfy9RszSfuRoUkEsQSZr8Xwg6D12Mq0aekRf8aOsjYIxcCWZfdJ9zKQUUPlw04RxiFOh1sKDhCBSJmcaM/MMP6ryvo2WgkiLifedZQy2Rrx8/2Hpi+zBTGdWrWNHZnBAAl2pZfVHSpqaXZlC3E6pQh0t6Tv/Mdkbvuf4+NlwwgIk3rULirIiawfryF/14CuCM8a+c+SRg0Y0XfaFJRyeCK02XwRFJgygR809fdk9fNbGdDR71wxqMkCebtvcsNxXAT6ctqoLTJ5EgcXVUGFUFJs7ducUU/ziFdOQBKigQgUD+wbir/RTE3MOWP3jQS6RtpzexRV1CSgr8d/oIhov9Kqz1L65IQ1XdElHirqRD0l3E/b3XjC676TTU2gXBeanAGD+V4TsNKJnCiDFO3Jts+E4T04RjdcV3BtA+E6PLdSLz6cZnTgKRfL/b/wZAYi6CReDZlI4nBtJ4WHZRgUU8v5l01R2g4Ndhcao0PIgQPAgPuD/w/+EUPOz/3RwnC1lJgEUtGiNFGs9aj06SzAMYbr3cVWawoOM+kVIiOIOU7B3P8dsS+2GMNjhUHJ1gJy1jnANN1ONjgFG7MuGkya/Q6Ndal2/NWgzUZXqrlqmOUV8imhBkDpu7l9QgV9g+uDqVSpkSeGwP8hsF/I7h9gD1OowW7q+D4C1oze+nUTykuHJOsr84aMjj+AAVWOsp7R3x+lgZmm8Sgh/VQjhTlKfrP4FVG0ok1Ro62EeCj6HK1R1jz+BPfw29QoGWV7RxqonILv4l9E17mOmAOSocDRHIktO3XJr+Jv75VudCxGTR78Qkz/mTrjIuTjq3Gtq3aTO/Fvz5q22DM4EveaxbYEX+jhlhWc+8gxx2e3xV5asZLlYytT17BphIgrv2pWRE04SKsiAy6kfLyWw/reAITeyB2Aoz/6mf6XQw1gTcStwWmOqG5/fDFJ4TTHaLL6oM985a7pND3cHvMjtk7SPz4jnYFGqnGYJfk9yO6bsTaYNS6FVsr7CAufxZqE1QasZPLxwzjtySWXfzJ26CaG3JhXgC7xuywbUhyc+nYb6KHFPqbx0r05jgrzWSGVvj55raEwIdJr6URk7Ij0s5Ibql7+ResYqqeZLftd7QJYocI2TW9OvnGok69pmszTLsQoo6R1vmdW/rsjYTrZ52V0iv+t7a/IZ7GQJNuHYAR/jFie01CyiKvAx6DKgZmhWMn+RwoLF4xMuqU60xXy4llczQ7nG7xtGy5/6K2ldtYZDEmTBwI6WQGo6oLfhzzY+jfOMpheuoo5DRNOGXt/YZFzGEXw1OOXLJZ+5UgnUZ6GJykHcwcQYpeeAoNEAfcEHYv8i1v+aOINUFBZSjNlYpDROaFRNEK//oJyNsIULNI0Z5EbCRYBIhegMwQZNWkHvcMDXpk/Dv0XomsPyxp7ItMXRLVaje5Csh0utow7iRPFAjOp+cyw+Coni+8bXsu+ucYYe1t3g9e6KDbBdTjhEf04qBizMuPamVeh790UvpSPBEQSZ62SzlywiZV5jrV/z7SKcCmfSY+I8guAeDzBo7arrO/ykdkFwfnCrA5Qg6yTO4pPRoRrbDVy8ze9sZlXuFz0FifevZ3S+CF3afrm2VM2TPU7mw2FXNm3zjFoaFtyFR5j09tsobnEdAl2en9fVdLOy47/VEIwZQXPjp/B6LEqmSYRyJTrtQ4IABLNC3yTuRGwOWkHA6LPF4AGiSiyy7wKFMN3801dpqfv6/L20AIuBp95f/svp1TI4kYIshgbNh6Tja3WsMfRyhejRB+BA/yA+4P+Ef0rWcMQMDopEzFLT2MXYQeRD2XO3b8TT/WBsjvCryEHafywzvzf4BltpGI8EtVPVlNdPL54NShQjcPl6bknrRtQCI+wBxR0+KAK8QaOTsQTTkbs8n9jZhw9avV+8ueUl3GDRfeJ2aH574WNQR6lr4xe6cd1bLbwr3wC3FfGSld9MFqvZCteuDwpPj0jiokDHT48A1AgGmEhFlvtzik7Kagrbeu/Pul5fH8np8D2cX72Ow7Lw3QWYJ7NfNMC4h5Y7WzrAYSeX00NC5/DV873pg3ymZ2O4jScJVvzAg65AfgkrCOpecBkETWxkgez9pRWOBEHWRCVrJZtTnKXQRJOiUvnR8zGBKkh1s9q6s0PvY6airjqMv8dfXFhQA109xOwmNlm9Lk5pzZUGPGsfUaSm50X61jlSYlZAjuuligEUDpoP3JvJ3jlgnrnojMWaKDYPqP0L1CoJuvLk3F1ms++jXZ7Q9WIWHoq5pWXFHITO4Cdxa2khwS4fffWRttot8Ldwc87JlQo0rWvZc4tJjwYNpOQG1rFcVOuuh6fyfHwImKFSAwTJ64AwYdq8NZ/um6W+6uSU2Zj02We2+EaGovvL8q9fYsdq4F+Bw4yr5pv6Dbi8X6nwDQyEo9PBY0ZYq/t3FR+VPspNLMjSVsE6AdpHisNX1+hAbAPbDQE9pmmx2q4xBbXI/KcJCtWloPlX+EixrUNInB0h6JFDCzZxdPWBm04qSTTIiwGtQPjbVnUbZn4SZyJERNbX3PEb6WGk7H1OGr+l+4DHzpyx8D+HGD7nezgtsX1EC9OeDqUXYikOiY9Fsei7gVUYwDJgAPbTy0lRjVSdKzULLYQY/5r2qS4nENEurlxz6d7rggkqZYF5EknhOV61z71IKymVup/9pOkrgWPf8pPGfDLA6OyedwNtPoJiwgQl7yKLShJ4aHJZLuZA6zCtmx7vY01lBnT02RtJIZtjKrtpIE70wxJxbHVxUw5pdiy38Htr7rsXb4KWjkSR/DFTE5BKiIJoJMFWBdeKbF0K6h7pdvvdW7fX6Bp58eAULjIZI+svwNIzdEuv9e47WyaWQIqZqy+arhKVFAjicqA860cxDdB8vYTW9800Yb2ZZ2y/AzASIBaSkCZwROP5/vbsFbguA33kNYI4h2qyejc67csmDOXiZMjxUWfWWevbnhMGPpyHuJduK0V/aboymXN6vGAvhorSzfC42ztPURTBR14a0YvhtpGVAQ3IfIRSyvrIlI5HTo/XXA+NbI/FAIxrs39DNURNPig8jU6YDR+7poipUwq6WYUxeewWEirD5FRG5N7LgFiNwZgJAP9SVkTaUspGTogpuxT1cLebSZk5TpRniZNorNtYkA82+AB7GpLgzPIeptV+hkq4LS4O6d77+q6TKNDnIEEN4D7g/4M/g1QIbjl4FW0+o58Zfi1CY8VAHTeoz5PHGX5ihJOlx9P3qs5UAI5xHg48IDuSeKajr8o87ikfQSRo49b1s2TLutk7Cc8cnGxWQqhBTD4fxn3Sa5oW24xiGzeqBzF0a93+xXLz0wbnytHru2zx+KLTOeOWCkzutrJxdzg13X0Jn4XPEV1hAjbkNre8plHGoLvnZdOJpvrvKqELuGlg0RW3UwOiAmGiNc8iXHQICJ01MpmXPJnzO8RwWaFiP4usOZaCl3Jvn0usbQPZOymxGJabi2XneURVARQL8PXhCx8WNZWNqtCSs7QsaAXq+dgti2d0UoJEhpvWf7EsJKctlAlYI0g0RDHpY9aZK72rxGYWbYB79j0CRKw7tJTup309s4Jse4F1XFawNosLiFMWV3EBVoGvPKah38SLojr7fJU5G7tSYJW/SuVxjv1xqB/J0O+k8JXyxuw6G2UsGMXdoFT7xDi1qYdjul2e3wWcx4cZZ28VybvaHvzLG5EdpFw/v9SxKk0PMYxCimrFaCcGpoTM4PRS9aHbdBXcdsYaIYPPA6nO2F2rdxYzpPHqrlNVtb0VxdnV6I8H8fnpaw/FO6VWJsmR4xBP/QU8ErXzdsNjoCYiqhJo7UXo7KShhyrFcNwAreJcFOZfNtydo5848WHIFUeMm6P73ErtuBUC7L2oALyO9KqFm7wpWSKt60mDOJj22l3RPO1m30yJ0yzBMQAxCeC47uEFL0Nsjsjq82VayXQaiRiGDFzc03YkDX54uUr1NQHSMIRh4DfXTaniROFwytWwpWwJP+Sye1yhMQSrveJrFGR5T9DKhwtUT/ffPd4GdmzPb6AY7ttxuekaiQJAeVXeZO8TddLqq2WqF2+vn0Ist1ghbwFMdbfAe4BbXQTuxSI/boKbq2PoVSi0TezX9shDqwMBTfxMo2ZPeg1oA7oepl8BaWoUT/w9I2vsJjALUrejg63lcs5kt8AF8EpE7vXE5zhFr6kN3aDSFUOZzv+XHbMkvl24GQyqXBkWcKVkJAfe5WshuYDvWw2V9PypQ64T2JuUFA76rb023hGLkOG7EGGH0SLmTJM4yQThnYRCKr1CgpnYGaZ85rkqaZvgunfdamv2OFua4/Ncm08Y1RR/6H2YRYpHuXUVFCCjbDsFHTJQQqvwNu2KVmRIn3olnCEyaxyQBCSwLRLAzDQqrIsztxeycG9ARfKfWTUke3fkuTVKKNDloEEdID7g/8M/gxT1zxVxpdYOWm9voRyP8egSUX9M9+L2kR3PGmibpghlSk+0NQ4HAZxvo7vZpwdJyEmqVXapJO8a4sbBemAE3B7d6nxpKsYwVhyIHDfZiQZ/D2GfsRP9+W0DJAyStPIhQX+76+ZspAhEgn0HE+xnckdw53oXW/KorEZxbltJacCIIKPfwK161EJTrvJypvYOnds0HKt2ZEqZ0xFR3hLLKkJ0jIZByesNgAxGhiGI/FQ0/cyd070MAxaT9Ede5brxR20VjrLEKaNM7orMF/AmHr7CoWhUIaw8xgUTen1YYJTbNfyF249IwkSY8ZMsKd2RVIyww+we7+ldg/eGcLdBUn5tzCPbswsAWa67go1jjb0XNpijWaZWF6D8UZbzl4MyZ/ZbNA2Ab/GmsLpXi0r9DJZdCHP9/zzi9ogHi7GO3RON+8UyYIBtLK9Bc0TIKnCgEHtQBYrFb7KF+D/aBV43trRq2zYd43UTzfod4Pu333AimZwtW1yV2Kg0zNtEg2lOlQuCZXJdR24s+wHY0Yu3/cCroxCLgUKptfgLPiBCEPZ4ImkfETucONM3H4yH9P2Pg9ZNEjNMWbh9uOOkw127b9ZcQ1O9/5sm8My9U2bxJWjHJd6gjW+hK7yrdJSZ1lJP5BD3s+w90SXNTUoNvYx6AJtZ5J+ZW1fP8ZcUTzvFuSc4CX8mKzMR9KxdrwQ+Xk0CRz9YQ+RIzcx/iRj+BNCDXqbPr4Z1u1BA0sgm+2fyXOrlxAu8YsS2q5dBFyLIZDQ33v17NpMfW+p7y1zwjC6eiqfIt0kMzpsmhH9L59CX1oRfEIe1inE9LwUp+5wMDS4f1zHqRMcwARSi7MJj3/utyqZQ4wtb/IcwSnLSNOq6W0+1/WOUug/Vx7BaPNAjISh12Z82pvS2GgZPbe44XK/wR0VGY5xEIb4AbATPjqWZf2uhLcZ6AAgakUSZQ1IMVZO+EKjGYbh5eW1gq4nqDRm417Q9h2dmQ8xrLBs+bdryNscsDAmciDeBep1DvvikmYpsQoE9tih9IruvkS5bXwVbKMPF1bDJxn5RYgyydVyFhhPgIxcykgin+CAX77rY4tHxtNDSiQMSrxQWuzUHVKXlMgbPDVMv3nB+u9Fo4JSXVAMkZL2wmAZFBLCg3N2eXLZVNuMXW3/S8eWgk7u8HFDwHpEtrvZ3e3IQoVX0SkCQh+/Z2Q7FZZzJXiCvdApxqNDmIEEsID7g/wN/wxRkZ9DBFS7Xgc4fVl7URlSUWoZPztk5zUKJ0M74R2EeQuYwITBX9L4t2svhWEO4Q64cZo/ijQZFtXUBXey1+VmNVCVA/2jZ/G3zQB6N94RlOLEm5Sm7M/lw/kQZzxUSHJwdeKFMtBr6Intr7mrsVDO6fcrH6GXz8Yav1z4U2KYO1FRPTdF4iLK377b2O/66u+VMswDe5U4tFE0Z6ihWY2yGgyEpAuouJRqvHG5s0Q55UO8aLQtDdW8ks+7FOWy7tYJdPasxmEeUCRLiqBkokzKuxVs1UGl+XWYAcIe9G28Tbd9eOeqi+ErFaXor3hvjHojNZuuLbf36+OZ+GgdGT0cl1FbZa1ocghC7aXSeseGshmngYR2IvBAnE0ILrW8M/R3qv0Wz12b1vx+TU0ovXNMUels2ueePvhPUmjErcK7YMLk1TuGUX+Wugl+qOfSn8WzaDVHx/xj6+giVUo1IlcFvRGYyFnuJIXTT07TPToGA0UIadnmKPvBukgX5Xv75Qf4hPmYc0Etsx3831cveoCs3LMOKH8211jppJsHpQD/5JGnVCs8/RmrDGpZpq2uPJVYh9uM+Gn81L7p3xZckCYvH+C2SmLavoOyS3J3uvfoy/DmHbR0m7FKsi7pbLPkZCvdFdElHTFtgA2KRZXP1i6D9tFdVD733ho0CJ4gSjX9Bur7+NeNMZ3k9pscdRMYzOMpD/xplwBIYm0yRcoW75JZcLnReg/5RbHPUDqMgdYK5kVvYOqN1jhx9YR8Un5Gimo9TI1YSiGUQvJyKn/r6wpkMuulDNPZuFESvU2WxaiDUgGPezC2GQTMp136zLMoLvzb2UNzApe3taGp1bEmY1XIZOKuJpZM0+za3Fkife5MapfPiMn+SXXmZiUCb+KEVXs/iBYyO9kJJjsLhGqv4ffyO+gaRkyWa1pem2wt6vEWejviieaendAlZY4jEXQgocj2iqKPqKb0GS3syCHEVRoiMjw1Lj7fkC3uHuhc25jIMXLTay+D5fLsxyYllvbaNv3adNsNKgi1YSX0LphZ9D/hH8klwyovq2jGe+XxtvJOOjp6TM6Km4TQ2x3qt85ZiIGcfPKydQjaGJiOleKSuQVxdzktDrdJp1RICSBE5Bl4ThYpfol94QXOEo3Cir1Xw1H9bf9BcppM7oLg6tpfe3QKaYJpt/rcC92pYzn+wFxXR1UswKUQNLgb5uZW7in8o0OjgQTrgPuD/wz9Dlo+UxW0CU3pPQV8Fwmf9uWEjBjorEalqV+WWBmmRkjEicxMpoKx0f2B6KMv69w+EaljahPou+9s31HMuBRI34ZHufxa+35AMQCs3FKfYbua4GhIfDUyaBprXFOcFUiyGapKF7vAHPFozFTbs2MqljUU3dT+lr87bZk/Y19xhxPU3eSDKxg58f2x395ptRqJeEIJtWWRRQrBGSEgIUSX9T+kkQ4NhV5cjxKulNcU79vZ4R2RVga4pIstYsWmvBtWmYim5pcajUrWJKhd44i+p928whhnxBXoczkaL0lIjIcFz/gfs7xw7TsnKNMX0URaf8k6DfChm2OYxly0AhBInyBu48loJLURz2+eQ6KSyQ5JVFwa8f+E4Tt6pghFd397Xhxy3tzlEmOj582RAI9vPlHyuwjqMoR5U95vPTWD1Ggx5YvCGZDa4rrVm0Kw+m6wxhR5zJYKiI6TNsuKBrjTPj2CMcrNlzJ9W1eyEAJGO6TNSdZxkYiZWylZbNqGlvfjtNL1HFjRQSC/HsOwjV/mSgHsNZNvgunFoe44Q8ivU+IyMVrZNMn9HsW4TW7D7QEuvt3cl6R85H0LopfnoI+Ia7h7e9Dd7SObeVspI8g1EGeHpdFtpV4eczCbUFiiDMTnQdUP4BpnWdTTPyVVJev/gzSSSMogXvAkIOyq6NmF0i9dh0zFf0nkynzjlqoBL9m8NckF5LzworjK2Ef+i4FzgE1H4z/fhtVywBi5mg9lbEcd+itwva6HnsCig0YhGSlAPz/Mp4h1b0xgB9lUnlTT4cYWzU31zIoG0tjgiHrZNIDMiKTY7VHp7akznpPmzhuNCmiYoaMkCuJC+/8eStIcr2InM/OcVQM2oH/JtRxwYS2JSeiMZvh7ceYcPzCqFZpkKqnGcmm8DfQ6AQVRVWZxcav2VYLs40CQ2/FEl1YRVxljsxi3bHI96HyOvetCnf7tyrj09PkaVJSEXAxH8txqQpo0YvPxRfem7B+WWLodb7p0fCqf53lTfUXigVFaiiquN/GuMHQxY5NycWZuTpjGzEZlUcR07TtPx+ygzMG7r8XWKvDubnLVqMX4orOIoQk7aoUf00BUI5EvfJSjqEsZqW9mlNjV46ZBgF9f/Sl8zC8sXScMD0LIQd/r4d3TKzEXPH9zTDNa2+WFN8GJznP7VLFh+Gjkem79C5MDz9CiCsniZM7PWKEseksEzUzpNRFdXbrbGBGL2uVRXKNDqYEFJ4D7g/wO/A9D1UbToBBNwhhFSSr5dlTnx3VIMWiBnW9yAStpylUA93tBe5XWG5vj1nQXL/cmJoSetHJVPT00366/L9r7PV8LyH20/dI/RziddGMv+eYx2IMCAaP2UPSguvNW/EQ5Ud33ut7X50nwfaWnrc8dCFhgagDjgBr3VSX/0CgjOrdR0q5cbpcLwW2+5BehiA316OeJ6hr0nDSjDGAO767nixPEFym733EeIsefJdfqkeFRS+DC717tBUmvoJuIM/qpW2M0yXpei32Vp+d9cwLYnlkIoggBeHA48l0vBfR4R9N1zVbDOwwxXkeowzhkIdJaP5fJQoEHCygNR1aw1ZpyIFPRARRJzG4rhGcYU2ZEkIcBlfTnico61B1B291JKtezrV8i4R0gz7U52cRxansdJOHGR9RbSVO79ciN1YXglake98UU/fi8QWkVzTe0FJD3XcFGz4DZBpcb4/5D37tMeKbsE589qnGU9bMNUeVw19Pp4TnsKlNkG2x4I5GQ50BOfKk69yuQp7Y1kY63j8fTgXL8mBchQ0xabqydwZ6fownOxCUZCiHyX1FfnIZaKfXRYvHD+iiia88WkrT1KOf/diKs18hT7qAJAFemM/r3jImd4UfYF4gBd/vAkQDsrC9yFtvwtTvprL+YpHGSK14V+MyZrEYiV9uDFpsE8+r9ZohxIi3sI6F4HUnMkL9SugiHCZgxjMGqpQNK8qF3Zw2NdfG0YygevPVDsQXiKT1G5gZwjTIi5y1yOqKfnlFqU+Y28zf/+ehrq5OOGxT9mMBkpGgwxF2a8saj77s9ypNUv57VQEkLlOrvU6CKO8tpWlHwxerZIRUNpzWaG4mae1RsdNcs0LaftOeZyZ8EZhq4y2uRh2tBKSv+6zWZC6OXb4lWv3mc2bD2R7Plm4l4PY+nIA7xKAf8ufKIVaFAGePBchz7X9qVp3zDoTyYpJqqVe/rSShGyRNcQBS5NMljECkyt3FWPzvs9u1/cnuH7eytPplK1Nd3LDCsgYPRsqjBOKHLAKogZT07PbUPUF7vMk7TJRx1C2lBXe+smXMyBkiDyD1xQRQ8J6bNwfttQHeS0Jzx9ixgWtmOSbaLi4TkGif8Q5Zuc2kZHzfX73cEaw4PL6Rpasax9VFgQNinkN4HI2tjeGgYXrCcLbBlcjwghNu8b2WxzrKQl7dqdMGc9iqcF0HQFoksHe1GB31aNaN+md+zNec+qNGHSP4KljrZ+1pfXTCjQ6mBBWSA+4P/DP0OUfKTDDnpcQ72W02jkWiq9qehvWCrkcY55Vy5eza/wVm0uy9wCIXH8I8j691wtPt8yo/Ow+4yAMDrxzakxYyeoD7NBxdDnoBmno7+jaG0IDGnFsjMxPetht+kMSLKOcCXXCW+T285CAjunlADr7ec/TU8s5uzzj4EwjqgAJNvADXhiDoFOdAJZVtXqP5ofmFnhm0lW/rEv9Iv0CKoFC895vsmOPCystbtjW+0L81rnk8pWalJXvfgnitEQEEWL6UegYm2NcnoLw722VkNwx6ZQ5FYeLvW5gmr15VXjmnL+4gtbMBaR8/UEzvhMR/FLNMZsbaL3no27EomZcrYf2NJvVl35G1atPNv/Ed2CeQjjIa8hzGdLLzQFfHUmodhXhBbgZXzOtm5+VJMO9nR2oXhU7UPwCw+ECYllHXxFOqSvK6pZ1jDwHQDD8uBH9WkbnpWeR8JuzZEu90v41M+2ineOHm0ReQnyvDrlcMwRNesKVvZfiUks6BSET7YvfutpKYqxrsLMZ89LBnMZ3ectYVxnqdY3E078eUgo8RW3jez2nrsCjvCz3mWWYPl46YzQSaB+AN9v+q0gKf2Hjz4wPF9Cw1NY+lrCTfzyEz+dggJxRpiqqK8z3s6N0JoRDWnOqp+5TQKLHPGR84gQEEfU77gTXsMlTlDEJhXil/gG/oKTpNFWScBNbAU2AJEOTjdh+Uw8+RcUvNcieCasGF7ygRPYWLm5Gn9zTpqafTnM/7fjjrsg3v11qkBdovcxrPyV4C+Tl8unBQVzUam1vz0LEtUkiZJhMO/O5zbCmS2aJh+3c4guQT/U+VYM5e7CMSlkm8Nb4QHGMfBkVfXxXOvykdDJiGMVM/0mty3Zn2cOyFQRKJ/KzrTbKemNGe4jMvbP8/FRCvxcxuoR67WDFSMSlBmnh3nw7w5Yqv7PxrP4Fm+tFVz8RtXCM6lZU8UGVLMY4HPuVMfPTStrL/yiciEElXeE5vnxk0VjI29R4wDsaGzvdA4oY7DBWINi4RsRS1RQr/3E93lXrxJNa/DujxYhqN0ZlgENb9g+uZFug+H2PJPbpE9nYnQa5LY5w/HD4f+rkWZOBPcxQ8zrz18pyALgCch/InYnnnePUF2jMuIavl8iOH71+plpNwoWrEqjYhgM3Z6k1H+N/gaqbDbWdseOEcMc+ZTNwXNFyN2mjOZ766CZ9HTZ+SCStPVBbtYSaeXLjM8B4F7cnQ1nGTyrhCOBJ0Bo0OzgQWggPuD/Q/+D1CfTSzJV23iHnDd4qfW8AIFLgSAkeYS5UdwPJASpCo02Q71i+IdpY4e1aFWFH/HsHQtkwPHeo/AmYrBchqy8wGFSvpnD8PqIdfLuWRLceBJYKRkpLFSGImquMZnJ3LoYjDmTJqtiEQDJ8zbDFMZ4pp28BK3vTKIuqGj0AI2Vje/XqUVD4n40OxylmY5D1mdtshFSiT6jf/k2TADkk//EJUnwnX3TCd4qcpaCIuAfaLHqJPNJJrTveZCL++dfFzubiOw7FPYDzcQK8e57k4w/9eusFzfimtHUzvuAoj85uWEiWO7WQs+5/xI9tchwgAnVa9YTkOWvFfRooNXQv4uIr8It2VdYTa2hb0BNUcn7jWta6AxGzhO2GfoLkC6/XV9gVmrLtA4hkA4ZI+TamND2ysA/JzX3RccbU5T86DhNyCGPYWbFPYvS6CFzfVI0Oaz8vGOzshDU9CPkjjBCdKjDeXqXRgHDDutoTb3ObxjuJdPyCJ9Nza2UOE5yALGomxusVCy1Yhy8G+QErioQANTF7zGcDz2n11qlqNMgt9AlxavC9nvHcdYZZo4wNQa2unXpOVz2uHtxvWpP4uNgIAWQMiiEDWRKLlJGXDeqBilZ2yT6ycbY+N5uDwp/yWWmyZzYhr3fllocXMxg0BHcwK66zVoaLXb9zflmB+/5uCNZFxVv4mhIkqOEG3/E+GgjJl1vJ0GIjbYf4FWLVySSvr5FtMGDingXW/Usc0oAVjjYe18MXAxIqBx47hbtQzKDfyKpzlpIVwj571+wPRqa7XwqWQzbDa/dtN37G6z3SLZQ9tcw2G9PHHnwespsFUpfLH2EtyyKFH7y1tzdVrtEiB2XqknTjHdRDSRqEe3HsceYK8m+TH1Om0nX4te/Sk6ewU3CMKxsMc/Biej7Zgh0AImfW0Jsm62HfheM4ed4eg9HU+0x8BB0gu/lD8s9vOth8H1nRRSl2tinEdYnuOV7nfitzJDqXkqo+Uln56LlX2Ea4BJucyKc+HkBOB4DN7WeaU7QoiY+rkiZ+yn6F8V9up8UASup+nI2Yvsdrqv+RhbCvp/+Q+xDXNvfDOXRZ/MImB7X4EtZbwAFkquGLoZTQaktmMBf4V+8+iEZI+rc2WvyVp+SPHkdYKeqqTqigHlaZedXsUIOsl7gMsV1d+HqVU7BOMeL/c78iyNF5Ssh1TxMvZucaR02ltfbcZvWbMabFpqRxG3JUYUrSffcv+O4mJqF0wGtWmrp0fSXd2jQ7SBBdyA+4P9Df0PUnu8AG/n+4IElavRt8sCEHjHr/r03au9UgFgZoPJnkLIcWTWL30VKZmkG25G4NerbLFRLYvu3FUZH4JudX9M7eGewkihQHXPJTxmf5HVg3v,
JcxhBCmlNLPzrTtnOoWNEVR88yEbubTS7VHz3JbA1YsJHVRzCrEH2CpOACmlRNe+i5KfMcwseZym1y6WjrECZ25U31uX6FS7jYr1I7ANfJLor6VH4N7LkexHpcUtSNJ8smQ1/3fNOIEegBOlalXXHVBS+/jqV/TCKrQRWdHwsiXlj3rKFcgwnSfSyEw+OS5hadD1mPTkDYW3ylJUvG70SLVL3jcqIz3OjvHHxUWfgnQYWbFW7jtJBKYpEuer6V0+rXBu0zIWeT6xo4fwleIw74ZJX4E/l/07PL6rEaDjR0hZdKMox5DB7M/yr23c0qf7WySSpYu1fYWvJtKSZvvsG2wx2ac1cuk4OVSy3draJ5/9mgByZV1kZZGMdQxx19KsUGUsFzRAcqGJ0r+zBMjsPs3oJ833t1Q/76tNSTPqCJcorF1XYmY39MqtxgaVGWRaVd2Gmz33WObIugqdLCB4t8mg+IlnmS/s8Tz1RrxxWn12X8yIyoTVF0cJHzbpeZ4uNPiE6DwQ2HH9m5LMTfltM0ikhnwPZmc2iag3Q0iZrSWYh5RfM95P9mdT0++XxcjFK8Y7csEu9MlfjI3A7/QrVXKgzbLqJzW2TI3DHqbe+8Gb50g2mc+zkxFV5gkO57of9SkZielLo2fEQjkQYeQR2iCthkuvu3xE6ET2Z05KQuzlJLDhclKJW/Itg/Z46wKvClkOGxWMsNbNWapJ3Qg5Yesxe1rj1MyTP6ErhONC4tWz1vCK/WXedaDTpmp5I0wjMDZaHfha2mUKOfy20v/T1IJBxWQMpFGyoHtVyVKZ7Xbk30kDR6/T5EM4T0rT1ynGD8wYFWJTCy4m/kSL/I6meOBfC1gprC2mcZfNe/CkeUpZPBv6YPqfElz5TfLJf8IwtznQ1MsO/kRVsLCQq4oY7ZDrzWxP79FF4UfWtH61OWJDNL7c8DGP84rcObQT8iJrRXiP+TgJ7ZOLKfjTIaLAOpqHcgcVoHXaBLGASnfg0VM/wz/Qsa2EeMLtvI+S8iG7uZ3zQl7c+lisS417EgShqFcfoHS0fJW2MZMTj96eT/chqN9zoraLmjloGFfO8bDOAFlRkNPQWO9wqo6vvjMITW5fo4Fy727uNPGZLyYBNzZJuXDnRtp9t1qjQ8aBBhiA+wNTw71QdVqGGf2cHy4wd3nXcj5a3njsF4bSw5nDf07PsagHVK7wAJZTzhKqBBwl12Y18WDfAP2ve9KevmmFxCaMF81qFsrOuihkJpQ0Pq/OOHhsArxdZgKEOT6Vcc4hwsa1y1LBsGTW1M5Bsm1rp+WpTNYmB/Z+bj6ZLeY5Y1Tomjy89aDx/yLYOM4w5hCEK7GWKl9ypUocuGAS9GoQb2fhI7DwjFCsqQjYzFy20CcoB5TLnUrMk/qUAc7eXsi1WtTISJyUNc8aXGyAXLIaIlenTT7nZzARDOGnbilDbkguFz8sV2rgUViWNl6UB7isAipXppXEMKmilkyWsn4/VwoRmnTKSopgEUUVhnxrsqao+VGUbFNUfDhGS99xAbXv8FIpmfqPf6ew2PKHL/Rjz+I/XfvM+GfeKOW1rBwHeztlvVpGrWQxCteoNFhLhVAuRiJbdiiEBhhCLkPimNyDSH6xK4Pq0NWWabLnF8p5VG044BvqLaN/fB/6Z6dgF1TwwWNMGgReR2V74rLw4XGE7M8xQotO1LKHgT+XhQxdTX5zsqeTL9ID40btwZFN/7IaGsi1WsN775DguyTFrNFVhLj2qeDAR57hhfjJgpEL/dNWfodTUz+JCDaAO7n2epjEZrO4n/QGvURCyYLfxO7++JryMKbqx4CBJACJaImJuAbygrvKZL5CZyQ9/phLVvm0Wtg5W+67t89FtGPVbiY7FqidppTYvoCiCnQE1jb4BWi1A/XR18xZwWxe0vBSgZ9HOx2pxx0tslrkNJWkp2UlPnqreczeDeT3IxyWup1fQi1IEeLzqZcol+cWlBGNtRrGcg4yWHdO7rJzVLeoRZyQuLGvWW+CNaLfBj2qKcdWqAnd6zT5/qzeIf3K6j6xhXxcSDcRFGPdEnxV0IImv2gTLAxYiYq4/cPBY5ObmKPVE0ojUvFgAlVxzVG7S59nxtYV07dPri0x6shw/GittoUV8XIv71dxE0HK0tn+RvExZYQ70OUK4QXZCX0hPpHnbfeXhrNRgYmXP2ZT1JWIZjJkgWxDbPRww1QbhjbqAE3TR90Q2Ta4snBVVnOiNKIjk4cFjup15lRkAAFOKy2k1WrmjnYTP1JcHh8GbnFJSzYntzFbqfI7cKdy4189IzZitr4Kdwo396RUrdkDnEzFUh9iG9fi9TlaoNmE8evkSi5lYHov3HVHbbh88drlPvjTC9cNQpwoCo5Qf+88+IqHucYhETZ0GAJIpHHYodek4f1i5ZvEsyRUv5SFK1BFsfFBP4wZOpKjQ8aBBlSA+wNaMN029ww54HFJ0mw8K8Gd2Kv/GjEGAup4EozAHt5L1/VmY1Qp+2Ir1no52i2g7rmuL8juXFA0zb8jQ9chh0NFrlhBy0U6WI/uoy9BSwvkjUm5Kldk6OzlMbj6IkiZiSxQZzedY6WoYL++FTCU/JefaZqYKaMqsYWR0DzREIyPDGtOz+yxD76hZ3ePetcOFqtJjaztnrFGjYCM7w4bUlP74OheLnAo4GOM9UXkOpYhLxjOiLrPjK6QfR5iaQ2CwPgQxQJ0s4cwYfuGdQSPspu9LIO16nH4qkg1/WcNuvuVIYloUil3wZe6wqOozxe4Bnl1OpcdFJJtd2rco83ir6OSLN5SNvTysMvMdXCv+989ZClDulnJJJ76Y3DXZ8Xic6pjcxx5zw5Mux3/YquVFEQbgSt8HRGXnotNmquMjwIZ/lHtb+UUFOzqUMW+sdaQpJF0MlwcIOAPsyPhWxOKN2kDrwpxHG50u+MXNOm4s2Dsi0lBV5HFwP2fc9LMVcny18F5ryRs01MRWm0lX2EkkuxbjJssKZNPdZJrjogDOmnAFT8ATLkn5GtqcB/OdPEEghDWFQHdh5tY9PiOhyn8tPf8Kju7LGTkfaNk+2qPEhHZrD+RuQJggTTZf5AVAhfWb61XaUp7cr1N3IZqF3Y8gmtSip04c2ATVh1aIZSzx/f4FQYyAZqAvjLJx0wuV+DBs3fnxGbhsn24kTor2tNsq+gu7ZxsqnCw4uEJjufziicVlbjg5Y/Mls6Fc0T6e6KSACTHcxgi7UC0lxcsoLmAYeXfS+VaJlFUEnHi/lIXwNaOOoonlZ/nVS/ErwYuVPeWvuaCrUgSEmEttcgtbYbHCY9XUgGr7lhp/xOP6WGctVhEIS4XhMHvTqaoxpa/Ro587X2OeDvMYjZlmN7bSuKpib7OqdblA6S3Cscb2l0V/KipJXa8lXPzfHEsPw1po8su4AmD+JMMXCVRtOsiIA8lnrw7xdmXJSduguf9hnsojK9t3ypXR1asO7PXHmMY6/hsRXNXMvQ9jnncSYAU6Qi2QcCDTPf9je64LroY6J1m4Uyf+O10uoa5fG0e6zkVU2aKGjBnDiKmlawz8aI7RduA4CH9JACGDrXiWCV4yVfU3KcTFWg1FxHC0aEDvQQtzo7P1EZ+LLQfdNSB78lqpdHZrlC0GQjCWzaHddVjb9gVAJoJmTCy06qkYk+QHFtu+m95ecHFvFuj4wzn0DTU3xZT8niLlxCO3fqh0DdHKiaHpOGEMdY7woe3pfi0pvA3vh/G1ZujQ8aBBpCA+wNR7mdVTMeEsjkJKFDa/QBc6+pbPlZcGM/HvwR0tvdYpmUiSHgOefCpSNWrXDlwrU5a4kiWpSKSiIwbkUdZLFMp/86PN7+WzJA9dbiO1iaLezeTMkdf0YXh70X//FKlpOOm8pKKKG3zFJKtwFZ99Oi5LarZy7nl6bX/OcHg2/clRicROJPCDrRCiV5leqV7qaMS54IY00nRlDf/W2ZF5UCRKK4kH5DvEAR0RDzJ+pbfVaH5WEf6j+VBcBeLKBWVZYb2KP2ddbGcN/b5eu55lSZkPugoplGECD9HcBTorF7GDqPesxweypTDA1JKxOoZSGM+f7Ho7Q43XOWKdxgDI2SF7pL4rsGoCfmBGmVUOZBaxNZMkfh+3Ed1NjIRnt5Tn3UpbboGi3Ofax46VWUFh6ma3GkffMvvlCOipP6gAMIyrVICr87q2VKCD11EvipYRQT5QNarBija6+epZBfj64zs1suk2YWFZS4ps+8Mpov7AvMZ/Rjb95aRlhuQWOHIreX1JzxeiVNxHiAcZ65+M8Yf6b2O4oF0VtB/LvdO5t0ea117jnq0OeKkcNU5JxdNQQDpxiL5mtrx8uT+kdyEp9CD5ZlKYhjbHwaZOnzHgDUz+XmMCBsrpk5fdudF0PsvqN2zJHMA7dK4S1vtTpeMDWYovOe6z04hW20Dpfe9417SyJGpGyQWTy2p+gZ/dtNQrqmAYgKpTGEP+v60Jbnco0qwYLS8IERwVmJc4KOPiy8vi9XKQ+K4K8cSMhhmfJfbj4YZKwdegCJswwAmFP1kcNRbvvZQk5/b5VvviKNz4NwY6jqpi1vIXFbd/JPAtletKxa76d3Q7mr6E+W4JkWp1AoPUfzp9fnxCkEg4ubCiz5dpsBGzACsKsU2HI7/mDzmGofc4IaUyENEH7Ltx0RpZM3hqfBSLVc8+R/di6xqdxCT+PrxQ//c38vin9KW0U+9u3qi6LBstRm4daFT9N2NswfP249DO76ZbTWjSa/6kpjx69+HRqd+aBrCb6Bpvm72f4UKBT+TDyr6QdYF7iaWCdf0mGIpAEODlXVzzc9aHgRrtMqg44Uh5J47k2fGpKDlNFIcylFZp1jk7L0p8NvbW3+R6PTzkoVJl3tFmcMronCYhFNizlpdwS9AN0A9UdHAkwd2NJPyRQS53NcZ61HxgEau3D9cCEwxPAPWv/AxMJOmwhCleC32T8VD+cGXvjL3lb/AeOLLyfsDvNqxLGNHGMsgN2qp8sARYsy2IimcruVwJUBv3XfpQdW0OZwQXrA26iWjQ8aBBsyA+wNagyOsuSjL+OXzqD/QwGy8IXO2CRUcyRHSn0r+m27QPkMi6jxyzrW1+VrxgEacLgP4EAsBMwqjbkUtGU4P3pPxtht0twe9ailjSVFqxfub7s+fL/JQvhlrOs96dEdnZfAiqW4hKoBbTspKGLm4WX6kN1WeqLGp38dAbJayA+bruiPesA8tdDxqlZgb0u25VUb3bgO8vnyiHkFccYOGrWrpJ1QsrgMzyW5gdguV9JxBb9IXTYtbOz4K8BXpQQDPQz88K6HlruT66w9OhW2ISfZ4Tq2/zuHs/wm2QT+ma+oI7AeDLzetTWsewmOWWOo9TUMepVC1+8JDGcWQyYcrDf2VlH/dTim8Ka2HVALimPuV/XCeChMfw1lrwJZbSEsll/VcVwCsyDVvoW/FsVeVkspUSpkIuAWj2yKfTKcUy/phflByzPc7sHsur9GTFE9AczWh8bfl2I94Y8B6PrxSYAs8AgSlFAGnX3z2eIxKNPqHejrY6S8JeyEwaT5Rm0TyxJfsp63kJQjzXGvIyfkOW7murGOuu4hG1DnYeoE0eW+uZktfgGIhpwJuP0diH818iAemn0u6/QjjDi5CVMGr6ZHdSpHgBxKq7IhFW8ButxdRczHZkuSmkaI5LTs5ZnYIRyGjnJq84GXzd23GlU59b2tovY0qNU0EzjCN5vDODQXzIP5mMn5xG7i6c3nYuHdiTCb0eMQyyvqQuxUllZ3LX0MIqnYY80HqZIlUsg5DRc54ExHU/Dpr1LeyziGz6cL3oHSNzaO6v3/klZCvww3QnVFYReZLeodYhPWBHJ2+ykMstDNF4k/wA0e6VjCX4meWRBlJC7JptAEolaS9XZXJBabLUfPx4UI4mPPg0jDgz4eszFqsfnSKcBsonlw5KxIuZVGmhUcbgYXz7Qw8mijE3Cs0KF5tVAGlGO9Mm3Nh4023Kserc1jr24wivuIK78KvUPlqJe4vE62mvcLicSK2vchnYpgJ0bqXykxegSOHcEvQqLD7mRYIDN5df54jTsQVzKFz2NhAJkt3ZzRFnuHoyUg4V8t2DOCkCY/OKldQlQRqrVQtQc2Ia7w5Bbyb3Ak9dILGFT1RGF0cvM6ZN2GgSP+YO9bHuOz9sJwQ0HWz7KqM45s8gnv4waF4alwd2DjWufKZsnfadVRi3ENHCmkvB0SShNCmcbfzwcsAO/DUHafvc4yFeC9aPuFJRCyXG/FrENd7bCF0YrnCnYtKbD424yDbvD2GpPSn7QwsCKrkFklTQc1DsoOtRzmU89hD9/6wpDCjQ8aBBwiA+wNaMS99z5nHG4Wmt9C/6UFWPznVYqqWq9oxwUaDuvCYbsnxSVrhw2w5nA+bpFYVzDdJFjUp6uI12zDChQbNEv4WQGczhmv20ipX8KYQIeqIU08Es06YGNv7UzzwR5wnOo86p4CHUPsHxLjDCVbZWB1gRcAF6uotwVMgC0lpEhGLbCuOvpSK8+zPk9vN8DKP9sxU+4jLLYAWLfh1WnkUZh6opqVKRoKaHhxfF9HavEdsXUlkU/6OYu+dCSledilVzRXzuSf1xHHRMThlbOUv18Y/NdmCHWVsG/rVjq7q5sqXXfkv/gvlRQmtnXeEVj390RDnMevI1t/QOBQ2GD007QASwfxTkxtcrUQ5C+XXtpsOA30WaqYswLqJLlhwqGf4ijaPB+PgK/e5kChgtuY7NHDAOcFaRpEC4sWmc1Lh6eSRtVpN8zuvql7PHweOuTtFLt3rdp7MSyFKMmxH1Y9vMsqpkV9VPJdWGUD9O075II7wHGW/jQR5XxZ4TPrWjJEXaInmYjKoQBklNj0wDZA9Iuw52KWHS+YKhF60RJNvH1RBv7qyUivZhKsD07E85YlQK7GTrbI9KtXRq6D7eUHND6G6cjaFNTHOCwlhhf4dLqhNfM2K84E6pfzMNNLoElM5MVAWjmcrL4XG6BOfvq/sGB438H07x2KCxdsgadUbr088e83ANdp7sRAin+zYtaOfLDUeY2qobPHq+NKexaVW8Mxod6OmV4OKbVyeVsP9mImUkNIkvUePJ8pFrRsyF+oQecuaWOcamU5DL5pqIYlQYBgbBooULZ9Roeuue3i0I2C5LsTNa1U4rLREQd1T8REq9WN6CCLR8Xi3EncJq3U24iP6UajDo4rUd3vCrxOSypoabt1hCD826PrWM8gCbCIDtsi9sE0UxJfdBUX86F40Ont8hoBbCF2k9q5ZORQ/EkiCfxowdolW1jqHxONghPINZfk2xJq6RvAHCPpXm02j++KsePul6S0xd5pCQt0gbjkEFP3q5KBmLMZTrBybGvrWH/07UHR4p9owdv9UUE+EG+pLR2KbSinj7G1Y9dQWm+W9hrmMSk1nREAUonXWEaEXvuhzJrd/ufRE6EYtcG2Dr43sD/Y8UApmPDuZsGsiDjuddo3EogUdtus/5o9cHtJogd6+Qei76cEcfFjJ+nvD+XMxmy5D3jhdEbq/2/sei3Y+G6ubvtVnbfe86FW4aDE2TFJ/KEtEl18GDUDSxmCSxmUC8T0EcbTp05194cPD8zFNQKpn0/Q8o+QW5Pulf0Fh2kyjQ8aBB0SA+wNaijEtBMVOlCQOl6GNswlCFsblRmRTZqaFJeccMVshH+MwErWNKtR/yeaSTJ75QPh5/ShfP8DCB96VLwaHJHofDIjoeD3r7Aha6vbEi5iaseI+yYb5J4SHfvtgeUPrCXRjP8so2PZe2uw884Djvy1pk9OP1xbH/yTHxaWmxo2W9OnC8zB83tOkTvDt4zhKYW5wAIrncAUYf5VTSH8LO/qvNukRzxU3OMLaF+DCyesZuiDBQEqoWEmoPhscVuN74GjLzVmmEE/Q9OwF/sYwWSXumVJpwUshfTVPBUYJR17gU1rQwTGYE/ri2A87DKac2yj6BlDvoZJ3yAgDbd0KjsfV1etcvOmQGZ2nlcZlu3iXanyyTVTfEolwZ6O3aoW1opo6AZnJjKBI58NdoQ03Ujpn1p5en3MHLaBl6ZDOK/FvdUUClbDYASsucPkJsKs4VHJF/B3efQ0tonzUlwEo1qSh/y5CNpx2E72CUm2rAAKrU8kLhFMgeGGIU15zBIgL4ZlQKU3YtSzByj8fHyDoOwS8C7x+/X15xbXlGEPErX0F0CdwvwBdoHOpN09OWYS40XfdVZkvmf4R2IrMVB+tKyp8HIyNEIS08RQ9TVhscBzXOrvVe+3IJbJUfg13J1TsjKf9T0mdAiNR2jjvtoOuZ3FSPZa0BZ3RmDf2QvbF97iPDyXHnWsOHRHuyaRPizrElBTiWj8ejLHCFk0yh+vc3A6UHstq9W+Gs65HYY6X4AhiAjmBw9rkJIaIdaSuYKtIzlH0I6SvtsGl+SL/JIArUz0rLTu8LlnwC439RknGz0lnz+452/YdQauA1I6SQII3fjAte7qPDy7aJ/bJqGIlrgX6Uh/O77PYiTi7lVoO0zfsxn/wlJTdNCnbqK13szKraPIYpE0OqpvyIlovO9oRR5d72VHSIi1hlZQWHhiUQB2ZdD4MIkVPmzsTu1Wxf5gr5euzjaNTzaD13/u0cKCZP5aOe/z8x0ogcEm+O5F5s2rO447eTdjO4sgX0GsDHuj2X9DrM/dUQ+pcdGGoLtOlrM75MCyRj26yPJyIcFbum0Z4BCqJeURcMl9T1R9TMx1vmlAgwdwYAZRzpKIjmODtyJ4YjWTPdoEBX0cDmvvxs9L6rQaym4vd6pxCIt9aLH2l9KMQWF097GjY0nuTot3ZQdzn8nECGxxGbZaCu/fsX6HX3IfWoJdaaGFAmp7wltkBbqCrcf49RX1BkZz4A3QkdQtykJbKdIXvS25VbygAbRx+PoZjltlpbzQzmUBEHlUJFlmjQ8aBB3+A+wNamEqKIIsLumB0svJ/xQDoEICQAVVnFSJ6kK0YHkWl+HsVBe39LgCAWLCpHGSQPT0V4q63zNaPCxm9C8jPNw6erURBkyunvjGpjl2mycZnbkKSY4p3NcKcD1CovWv5SKC1jSGFMPZ6MPynOdXfARyIdChjNgfz6nGskdEg/z39h/2+XR7d1CE8mTYTKXiWAJ86Q8h5woXVe5oPdISRffT06u/KmJnI2qItdTVOEqQpnHpntkJLMy2T9NJSg/o8KwZ9nZF11B9bOsQ1lTeAQ4oYZPbhdE+ArdlXt2SEHwEmcBDivnuaFKEzVEXnM1b93/kiNClkk5rwZMH6/6Q/4hSfa9T2Wl8ZeapHWHxeK8mozjxzqL8FuFSCqlh7VPcTq+MlurejR0gAy24G5XLUSg9+TmR1xizXL7TT/g2YnMidK1opztmICSVbSrJ/fDIth/I/bv7lWtDwaaegOYItgL0X4zFFnK72gJnZJ66WalFOO9oH68tCEkBPeRpxsdXfBRGqKn53cWKcmrj2jgJB/3Tmk4Ju4Aw72AmYfbY1x1eTAyAtNISZZFaSDFrhDrwZ0NFQIgjkh9R2vT55LvKZOBmR3IVSs4mkoVvKs9s/VBzSZwFF6qjWAB0X7i1wPS9LatCPoxzFj66OAmtnXGDgef5zvdtUpbznORFEvdYos1A1xiedTBgq7KFv/NqvlORTgMfI1mctFVsFKFgMFcngP/K5H+WWYLIQU3b90EzbDsoyl5J0anR3Td4+EOStG9LgMfuGUS+EyZiov7db6dmpnw9PQWQEBWrLGJVeNknI0hT6H4HgOWAlLAnjy0+CoHinmjgBQwRUZSHW+9pv8C65/N18WVFpZtwq8cCZiQb9Iv40V6LRuNtnczQCL/f2q7g2EUv6TBPl9BGqBWf2KAbAq1ilzT9PAEYkkgWnsV4PD1lxmm+XIFjGseHN/9nOi8pRVkwyDvRZ6MxxfQzhVrWYeNBGEYoqDzFBsNGDmvsu7alZwjT85n7+iUr1NFp8s9DKDmx51NcPJP1/URHUOqj7KaYEQQ3FySJ5+RNQDEGQNcKLnXwiOVzsbnNggUXmfjoLUdEKrRL3jPeepqIEPO0IJm2JJC67Fj2cbqDfDJTF1n5U/cQPIXXtp0qQB+B0ovEqBzetRC5iSm/LCxhQvzhVhub/vCabIgk5hj+Ei0XS56NyOzlVN+oRKi66PoOZfio7sPpD6DFHJBlYf7ABQZA/+wSz5NBK/lOF/dYw140wp162ma4QnzCuN7bGpoDoXFnNkFejQ8aBB7yA+wND71C8VTGi2vO9TSZeA4qdlDHA9n+r8Vz7m0EJuuRHMG0/6zrs9Pe3CDtvjSrMmkevDh7rGoYnEvM1HOz2lKwwOSQZw5NauOI20PPEiwFSCmxs0Bq1jAyajsiwDRZlG+9Hogy5dW1DSMrw1xrAxShEYxT7YGQHflyM7YJqHikonGpdUvTNGCYI+ZMVfk7LWjfDGNwh4VWWo+naPh2DU7gOQSMa3BTLWt38lFKUEE4gc9W8/BeIHMSE0ATqiR/1XoGmtcOcLXO1PT/GE425wEgrc16vJqcZPX4yN1NpqOYPBA1SZVeco7+QBSX/BHymY+f8WP1iktHEHbVL9i25FdEsOAaNtD8YWpW7MQzEEy0lV9q3Sb9iL8w9bDk+zu4kKKjoZJg0FigamBSIyDJqSN6K7jrmt84eF/W9OZVllrE+uFJN3TQnZxPaVlu02qjLgpVmFTAceF4EWMLeklTwQSOR8mtFPtFDVh7ZzaMrwt4xTcs7X1BRIX3nLTLEVgmDqUfhoqAtLovMNF86BH6Hu8X0hXhOxg6pP3P+oKZmm+qdOPcAik6H7nyYZkHhJpf7bwbn0prAZwr30Z/J3F6wxVSBlNOnhs/OrRtJn34tw+XUBKTRq0MeaAQPI6pAHYWPYFR7l7W4ZaT2ouhEuNK4QTw1Fp+EtzLB5kz/Br0M/tE5Y/9/Q2AYiMyD+KjymOHx4afvfiLJKBMTS2a80IviIc/HLNuQ4vy71Q19Ra+HmBL2qVpx3A48a4ilmlTquh5dwtuZjFJopjxIZiJ4X7I6smWUh9+z7uM/yfxQunODNbD6gSiuHh++oTYXi5vbF2l+ilRfuPsmmU/pyfmAtD7JJjYdUeHw+2wYdJ04/GYZFojpMqUaBz39VagCiIGw4dV1RQ8Q0HrvA42piGSF+lb0YoNZG+qSPAVWybhUZMtFxuQ8lBPe7+73VTBnyPSLO+FgBcDCREGrW646c2OhnNC8TpgYD2dIrqLAGdi5QJMqOERQpzV/VS2Ose5HgqPU6hsAgBX30cSgGu43wfNoD2zh12236+0qaoz0jfcmdaBFF1JplR0CbWhJ/gYLuqCTSZrEOr5IxbRlHzTpfVj8blTkgzyuis+Ok+p6ayN9l+kItBe3PGhnxYg3SStonNQO4jeGBOWxEkZ94/z+tv2xb4ysRgDxOsyvrlYpaTCNkJ0reAoiT+h5rzl4a6dz/92ea1ea78zHg1VGtE5Mag4p7u0itGRSb+1KL4demJsS9ckMkD/+dUO0XzIG43tK29aTiQk43yGjQ8aBB/iA+wNQfqvyEidiQU2a5yUhUMR26GKYBgOvnVlTO6l9og0KGwO/s+Ep1PpgL3tbT91aqc8rlcEI/42db0v/q+krSHvhhNIoBYcUdHLbvgT18VyxwWOfUVvIk4DOSucATTJxz3HOXgE06zuRhxjA4G2h5M0Wy2EN0eaKvZpqkChq+KYQvZa2TSsu3hb2BX5A7cRB1i3tyS3dfuUuS0hHVyX8e4j8OW5YzMY8BEqz/cMyZzajkEQTqLRSkclQ6JCY5HgQ0jUCCDgotWtGBAqmlvU7a/fwO2u7gfBuh7QTE10SLRLVUoszGzhZvKircOQ3esbJwSOdJAVCoWY2gdtgcDVbodtN3J2bohvdnLUvySemGYWpWiYoiufOmXb75ThUYZzCALDejb2lfUeGHjARxK0HY7FN8S4v04X75fWqQQ2RS47VCVOuCSoBSXlEon4cqaoX0WPIg3PRlsKcQe+zJ2g0VfRHBDQoZWOgUndqPdnnM3GZ60OIr9upoDW8hPJWLTdL6jAwoVcRZT3f1J81w0sjbKlrKpIRVI+/mRiccC+MLZXbRlU+o2cuIdH4HeIvtpEbArcMcENQwlYU5dz6Zg4dQuULaKxOpx9jDxJMMqNuOnXqpYALBip5OVN5v6PIpvyBgah/s2uHl9ynNWokdIHwEDLGQ03coX7A1k/kvy8IeTWcOWcAsiHeyMfUGynh0JkXVBmBQvFek0d0h1OhRw5qG+jq5tTZ04752hDWbjwXOfivbKnlp4PVAWtPvyYiNCHd6PldodHrENgRbWtGATw6v0MoA9pURcV2ezWJNopKEYwAfF5z4EA6KK9aiZgq5c8TH8a92FaQdiVSag0fJgFRAvJjU8PZ2z5664CE08fofuMkiuQ8hvjHfCdnj9MwcK6SmPNk82W9FF9OSjhV/VHR6c3oaQ/f0+Jisod96/BmcqjhpVdMBtspVofK97dsL2syqHU8lK9bGpRnB+7JO61qiStppy+AmN0VD8SiGRrrdOTRmQq+Tw0E7svNw1DPqmXq9K1oLppwNTBOPDGTLfSEcRfhnymesDcMhKstZQKovkB03qn/hpyjEM0bsfHMo+FRGy2dWraEBHRiwCuGbFvH/gXQhqLNEM1bbHBxdXXgtOo77KRwCYQN2BeBPo8PjZ/dbFE6DHwLE2oJD0OYFUACqNrgIi4OgXvdV6G9zQXKEujrlqxccrvjfeEb8bJM2qo3dHKE7ilqrNxpmMlU1Tt//38mPcDi76Of/xT7WB+R6cNwSkGYem+rL2JIw42FgWNgh7GjRLmBCDSA+4P8EfxMUHxyBXxNArAaRRoZAqscTzIFrwD+Oodw7GJj7V/AVDrDrw1Vnoh5XNtIZT+92UoxRE9y3Ygh7c2bvXilpstIhqbKCzWVEq4bv5q1IXTybwHDt006fZWzru/pS3+kICvOGkincQ2XjS581YCRVkzdIlRT7gNDhZ7QlhlCYonbqfntZ6iqyRLZZiuakvwr/1d1i+UJ7AvtYcOxM8ZZP0qebSSGJn66GJCZ6SC2aapt9L1EppDjydiIKyvPmFXhYWrZzuWcDVRx8fKlowizgfe9y36I8PQG7Gmwt3j/jqegeJQZaSKr9cI+EG5xgzUK0vFR/c0uoo1eHY7Q+9rUt4CDApo+eLiCaMr/ftE6C3uuEnxdrTxgi8fnQoLPlN20aY3sclNC/rhhKYyAd1Di6V7unpSobK3UiZ3mZr6R+WNdwURzmRG+8jglmxXTKa+sPW6um2mZizdy1T+5ZZmirzlM5xrFqfJiVmhA/CUfMulaukr8zjgsY6WkWJvhCWkhEV6HZ9f9Hs++oYKu/1FqLngScAL6jIf1wfm5U1iVC1S9W4fLBfbclVzsrekVQbLGd1pulfKalLAWc5qKOrCLVrD200iJufha0IVMe4RZjYK1WRMApcmh2v1a99yLhkmtzVYkU7gr02ucIim6eAdUWRBrbppT9K8XAGr7bDWiWN71AfMOKzrUjW6bpFUrTghh9h48g/7kO8hM0wPao4PH8hqDTBFyhVIptR3BH/RGagZAfr/zqf98uSOfhhKy64bJMIr2hLNbMzqs5uOIDrmHDKirITxZMvlLw/9sae5G6zeGMpT5mAzmaXO9xlM9oVsei23HS/ieSbb5l9/zgU/Px//GlVB9sKOJKHcDFZQwGcNDu5EcF9Dddw47ni0LfO/MwnAMGu5tk3uDT6WKH9yQr+VA90u624POF4w5fCVOx0BBEIoaC4bFeHNrtA+SFQJ0eRgcyWh2/JIBkCzGujRGDkk2tCy91LiybvhrjIgvumnijB0MXixzJ3ejd21JLPSZaMleOuVuRVff9Pa3wkPdk2GdsENxChkqC4Pg1HXPDHi7tj6ryZciW0hCbGPH0ha2f8XE7HDA9XLxVNcfQGPeGSV7E0Neoz7DPDZW/2Jp/8SQ1TY2aov6DNeTppsjAhD1EKS+suyAlAINhNqzpoVPVEEfajgXkITHl26IMItYbH3qzf+/mZcIFlHQuKcFxfaB0+UMN4qbfxlvle8aImVy9S42fjI3xVZRSYmh8Um5UhWQl8+qEJYqtcwPYkEK0teDHMN00BUtB+Ly9RIdGt1nRFwgmOdUkywA55pLqqQO2DHvv+TpCa2h6d1MPFsizboEpXhnfRVFPIXx/g/8QeVsbv3YxmwRdyM8QfQF4YD/kIcSxNsn8rWouW8eKM7WQcnY3NkzD3hQefobkCLL7levnQqH5OphQXk1RNxsWXKQb+IfCU0fboTOJvQjDulUnC5yKNZ7BP6e+/VfguRbH32FZ5imiyOVDD/39CJhshl/peUMDAPa8c1ULr9gPmJsXuV/NY9pwuZokg+l5cK+hUvuukrW68h9Y64whNAFRdsLuLwbAR+uoKFcsdQt5zGrmAGCteqjQ9eBCG+A+4P+Ev8RWcfwSVVSIgHdNY5qb4RnPDfqDMuCsTj1/cza+8uBVvcMo0o2bgIfecUOofNkgX+ZWnTptdtLmYzTY8iMMoqRH8MYqPt/AXpjQJHkp7OyHbT7LzxRJBY6YU2dC353jt5NxCzjTdnKwqZeGJTr6EzVbTecMT2lidXJPYRPmxe8ZT9vZuL0bAwVcDmleVmHhUkLXc73mxt2TslIzXY1tL43CNUlTX833b3k1jk2bsvV+Ufdtf00H+t68k68SGXMYkJwpqGoHs64eYkQ/uZF0899Pbu+YK3JSnI3mZOGFfbIpmGQFFf1dpbtLnYewQ2Fq4KaBtelu2z7mkf0GY2PMgoKu9lpbWapYOepp1HwKZLWxLSjZSHkr7v1WxNgUEXLIRg3JNLww1WgPLnoiUbbGbvw1jWhhftpe/nYF+iwSYoKKGENrNBbxlBR9Go0OGJ8ATwo2/aLftrRzTNF0lZUSAy6po0uJjY5kBeYrh5gRZU1tIV5wzmfuiFxJIJpLCP9JkQ6o73DBy7ff0zcZ7JvAzgYVG6JJYVBOzMXczc0Z3SRA22ZSefLRCRa6PrNvbc5eVFRvehI4lZYN+CJFXVd8AftgfaB38WF0XNiQxfImEjFpPmrih93R+nEs75FrIp4GspmqnVRMk8B2iD4I+bNvWbpYehBYee6PZ+6LjXgA3khS/YSkRqj9XycJH/WRJHBXUvUsaTgpwU2pyeddbuNDGIaZoYjwFqC5gHS+hhmFXJ4HpLZjx21sXnD6AwbX+CjcbvWCtRxSSi2gTXH9jnM1Ynz/pSPT7kcY3/T+iCFE87zPDlMb4G76AMvWQW1jEYty8aIiwb5pDMv9Ghva9LaotWluvfUWDuwoX0Z+lPE4rfEURc1+ZqTUJY7nz7/pAloTxZYaGOZcT8HqrXOsh0VdWWMF1zGAEMg2PRsdawk9aZ9Pi4pw+h0bhnHHuD2mgN0vbB3G2br0v14QmvYQscKbS5xslaJjshVP8xqVVIOC0dSmcZqRBqSbqkTXaaOJnO8FvXxt9aViE34Hn3VdM2g3kzVKIEwb7bE1fFyyZz4cmpV1iLCoFGsTIDhaMz7+q7mo83VXA+V170xyyDsyYm9aG/gZUSl/emHasB+Mzw4J5iHxuc3kH2/BOZoy41gjdhQqJuPNveZaAEBjHAjF4wVcu2uDHio8Iteam3PwLNP2C57nWMcbloC6GaYzPeBp7zpEB4rR8UeKYKkY7a9XD2c2Drvmf2kgVZJxrrDbsU8wsn04wy+t2wB3O28pMnMBrtZlzZC5MWQEjqCruE/mMd0VqND04EIq4D7g/0R/RJD6bVLY0oN+dCbCdgPpovJJBLA69ED2l+4SPBvZNzJ8xzyiN7S54MNI6LXXMy1Zy04kqYLxYyTrumsj/x9uv9VGL39uthT/C2WFyPb545bcb4wer3aI+jWmrkXHdYuyO1W91GS4xnHWqRNnWyCftrfJeIK0e1Z73HP7gQ1s3KEVTFQ5dstP10VVHigKro2tgCKLSQ6f5qDsuwegDUXD2lBL4NzWU7IwGf5QSjadBXntq33vt/rZsltz5ZObMAV5S0z56lVnfbxJNQ/JJ32xVdhkqh88I67H3nZebKijqey4cK8mGVtDsa+U1835JLXHZH7aZqZK3/IHFhXBu6kV/tdgaSJchaKF/kH5nITJaiLmrVfsxNHNwcnscWNdyonFVu6rwuLMczLLjIesUmfvF2ElM17IXM8qDjdABuYONomNuBSbZZB/CZY55ealwCWHf4KnCmT9dd1Gli4n0ZoMnBUXF8rGIPK95JVCq56+2ICG49oANNlgwgQ6PI86wukuIWj4u/S04gRiJevF8Mk0V7B3QwPgpjd7SbtlpOFHkhHYtLnqy3+Ut9wOdhMYjT2u7/HRRHgrvd8Ccn/YFoqq7U8M7CCLBkH/SHyDN6bwR3YdFE4teuPtBb4SdeDyCseTfqvNtcAVKoka0yUIAQGxc+GK1iOrRcHMIdbqcW7Pqrr7EGfpUlzBNTn3JITa/3WgoDLOaTBrTDIaLETKF/AJg2D/zgx6dU1eP5eBTZC3XqDvYACjf80dksVQmEccrCeWYTi116PEZ9X69nmsYZRozOZFn0fQoE3FrcFmMrcrjtQoygwL2aAhObCA4f9bueoG5Q1Q8Gi9dLm7Hbcfpm1UAYplWAPitSEUnuj2LHHkg2qKaEsJ5wCvitoZlnWyRu4l9K5oHqCBgujDtd80Li8xb++MK2Cig4X7bev0XfP/KIxceVGZGzbTCz8HBOn/RazowNYAB9r4P7r+szA+0LymlJG3J9bEggT1HmOM8+lZnN3bfst7VPAmJjot2nrPdW77XGkdO5rWTpi8GPKV1v5L1DqlgQUyLAH0HM/IZ74mGPW5+xIuCeRZmGM+BtsGFYXPAdNgpUGL02gA8okNZpfUgZBoPsqLXDPRQmjayQPYwpTaP0lfgj61Gus/VF1jV7LkLuxDm0uYe6we3TLEJDRKnfDobQQnsfTcGyvfwZqys7QftOwWskHT4OYzwErDxP4MeLLLQykt4pscNPKN7h7ezDXiSrHSztKuze1zVI9WslSNs42pEFX7UeLXL+nLqA0D38LO1yAuoKvA42jQ9OBCOiA+4P9EfwSUbdXtfbYPgjA+URXlCJ4ATstQkWI5Kxrx4//cOvrF06Ta24Ttz0eBKB4YwJSdXuvCm1kLnsMPK4qlxpevNHb9o83gjV6doloi0aEPcnfY8+zoEujYvd/kKeNKX9j1EQvsaMpUz3U9BVCMdQiloYxFN0Ee3UZY9K6IEnU+yVTAe1lQTA1/S6SvNo4a+xLl3ZdDYPihJ3co9Imouf49OYKROydj2N8n2QHweLq4e35jvB109TF48mHW+xeei8se0AaZJ+C2ZUymBFTMX1rzxR56bs0VJWWM4lt6RgQ3qabZ2dVdWOLQKeN9KhvWmb1+Cq1k9PZc5perN91CeRAGxFgY6twWJweUWwH1lAMrROGh9LqVWZ+C4ztpQSe2BrI3HDG6I7SHxcsbhYBE2dfJDokOiHp3r2n7NFMIcWcT17qrU6pUYArjhsbL4quonsu40M4mEs26fEHKnUz7JhkVwkBgx2eDhN3pWKhYXuWJuWEjEPdEvE3Yms27Mpwqkgvby8DUE/uxUQshuQMk2PWslKOf0sZMPe08uy62ylYynqUgqdiKXDJXW7pylmFwXXXsSZF5inrLBhRe4g9gs344pEi94vvJjeD+SrW6Sd1t758sKYWk4V9O/ZG3CHy2vXFCPWjsVse2gkcAsmt4yBw5bmBkm0SyVLD1MBmPlbAP2e2M1sWeZeOJ0dZcjsdezrlu84pKEveVP23LrNP6jenscpMeyC1NVnNZxYHB/r3u6GqEwbqvkg5LYeVb9WPgwVLBxNc7slChqYIOBFUshgcSPk2mw4XyiPl/59osfpffO+rrsNUAZXm0+bte0/X6bmodmMvzPx/6aP0awIfLqIEJ1V/fVubFivkUiHdZ00QIZ7kx/XQTgAy2MkRYIUEamJrZQYJPFPkr4cOjz1ZgdAfDci11F2t46K2WV2COCS+xLKHt8PcDgNxqsPP6W1hoGzRlwkR74/vzRbtaFb837/nPrNKDQ/vItxY6v/9ZFvZr8fCYTeUeMN1EUSvNx9SJ818j4sgUiB6sVb8O2Cnl3Bh7mpJPQdg9fFXO/kWOj+RGrl6fpw3oRvzYRDRXQcodmTN159KXcD/PtQiRinVrPSXhT0Y7ysZLwO3qHDXuKXhzkjvCBp6A/yXTNaWKS8xegd5+ytpI8VGtdDJJxVcJ9xcLjyz5CbjBFoaVuLVTj6eyzkfYp4dNb8WOh9x+DulNdzg/iSAov6yjLhLheuAP3iMZZ2rZ7mAICs8b+e0wDzLFiJfBqpr8fDFawYb/aReJAFKeuK3VFwKIVMjYGX7o0PXgQkjgPuD/RL9ElqYUXJW9ZzsPEW5JUZ3a9A3smIH8ArlVaPVWTBLSlAr0Od9v8m75E+/Xy48WHh6cYFwxOeKKOm5eTY4UHaMk+CEnPXatK+D+tnfeEt1PcUTh02U877DYN+SD/92Di12IOMdBVhN44IeptqvyV5Y7aq3+ZkRFOyGK64YKwMXU4rMLRv8bVoxdkidow0fzlyWS/3FfotPKepSarukJB4UYisNOw9b7aPRJlmgcJAh3KXPrNeMiU5mMkmivnbzg26r0c+D1ZeNgha7NFVO0pZWqqg5pVIbmO62J2qDG1qXvTMC+6NA9rd52zr1UfudED8CmQbmWlSfOdbmJS9DtQFhzJAowNRkWbTf9pUVJms8ZMvsCZO3C9xF6NvX4PwysEuTQkcoZuG8/htyFYVYizlbqsFiDbZa4ZHOkWNl+BNlnuLWW0dFmP5T2SomqihtE9sEckVx3joZJDqr0KBD2R2+YTsVwz3ds/LqkAhIPVcetVUooIfrYoocDms7Y9UugYb39s2wcZorl2p6KsYQXIly4UJCHSJ+LsW4u6jjlVzCg2aPcIeHjb57Bj2JwUvLWe+9T6FWtds9AKMWL/dmJ3znyEYaSoH3YlZNUM2jqEoeLn03LzHHaw+TQQbjEtfEioqbfTrG61SWsCAAgIehsB9JG/u3t0dkysya8LkBP/FMb8Tg4xd+/DnNcMkU56wnXsb8iJ5LdZJKQ7JWzB1mcneFatXc+ytjq/IgtN8PWMxiWx+391mIrLfk/R+byUSV0A8J6tlumouhutdrZzP78JRIb5XmaA56QgSAHtQo3F/i5vD5zcFvpp6YPk+1KeLUluzidfQXG32mMiiiXPRPNuGNXjNEY/Qy0yPaC+7mU8ORdyTO0Ho/6xF344j1hZ11AxMwUkzt2EYC6jpVtXt4d+OP+OvAUJHXBNOd26atT05E0InXxXIxwLuwugs/k2cVi6ANu77VvYrB7XST0xv0ELDNzgd/j1vTgi4YPHe52YoJ0h5YtpfKgw+XoYSUBKPIC+ffO4EFR08Ke+THtKF92gUR4lTFBtcF6HsZGNzeJvG6TDA6l44yKcQS9pnoyWBsURJHbFIQvBK2PvgFaJ/SAgsb/EVoLegmV2+xZ3xNP5jIOPbVIX7F4SfALmqWG1iXPe2NQuKLp96OV4HK+3fbUioURVzjp8FvxAxay5nMfdPkQC2wfCU1hcCCQe/feFZYObKaYGVEDLjFV4izXdygqyC3QYMZUmXRpl2RFGlJwoW9YF7ZgsPBofuAmR9wINZW6d8N3yFSAdmHHYZ186gbkfujQ9eBCV+A+4P9GvwOcu6OdBJFSniQmTgn7sLTJJxAY6KnGEH5/Qtv7IqpkHgQc5UH79zveBfVllE2P2g+8ULfVqFOEpb5y/MSbDTO1rzE5opO2/+oEgaKjTy/ixqLjyL/z1U/fkL0eFgsUeURCPemU6bYnGVohNdBSQlUotlqmoRjxBu2qQeYXsGFStmFTULGUj+vHgNuTNAWJ3FB/Df/NptxaOqv5wglJeGNuaKA1EB115rZL2Ig4D22AtKSPGeh3TUhdK8y76Ym2SmcILILJKI0A7Pw2lwwKOFzfRopdZKfLS/W4aV30bXwZhRmCz8OLS0mTb4uuY5CXk+8FOXGs/BFXUpClc9lplcT7LtvRrCZbHGtTjvleRJStTKJOD9uzwDQR8XMgaCBtQmPzQ1Z84xDdFQ30TT5jjOmE6bVGVh6/SAJ0twcYG6TxkVJljhhLEBRJKBkWd36waU6LJ4SCQa09mV6VoV7vKb/xv7io7xZWlUNlrYaXrLzxw7GDlnabzMCgnut5bgwhYcpdplIjeDbh8HfX//rKcrVUBDuqCro4m0nKe6QZGRn7ChPR7+S4UxvtbpmTCLvlLTDtxFfBYxUxT1a3ZBA48XuCtwcgIKXExALZPsLHdMk73lEF25ngPgVwBVOb+ECzVbB/HBMIPEdR24eoDUHOXsEK5LDH+z7x0Ai8Ul9KRS0hgiQ0+NixwOXkobCG3MWXcYStADUQR6iY+NTmtu5mibSAV4V6uqP/VW8QSujvFmALJLmmtWewoPIBAoEMVdUKCwNKukog6XrKWewM7NFLrFOPlQMOA3URuQSUnChNcI80PTf4pgfAbfEwaaF0iprocSfFPiGUcLWxx9EHPaOCMf4Pjv73l/qWdk1woSe7b0i9KH3hhxLBjk0yzRR/T+skC1eC4nT/DU1RMARX7wh9lzLgJCk/oigIwlFB4+AACElga8rwgeaNHIOEdqEQ3pCCnPDZWXVr6PTayVEK/YM1WQrqcM8MQw/+piSy2x3RHuXwlwTP5GUDF7Lj+voQQuoAipCeXyj3ZPzPQcNS3XnFoZP0Z7hU30zupwIkOf44/auUL7Rpv7Is0mVbdGxIF1ulb9hhtAydwi9Bz2NkOpreN1cdV16UiwDqGM5hj95nbl1pKmK75fM3sK5HhAxbB47jIyvwT2MnreuaaNeG9FEpaBzrs6eF7lgNJ1wqIimBomAdOxw4s1Pjab6E+QWSPz1gHmELIkNtIP0Gs8/MVnV5ArLsoh5NdyrZz8VFNLw/BzkxikBKcorPZY2PUascuLLEbHDyekuAqlh5L/+GuQD/KNDnIEJnID7g/0M/w1RpmvKd1JYgBzgyshvHVLD3tFqem7hQU8VvCxqlUL2bIfaG48AcVORB2D+av72t0G++rWkn75Ih3iDMmZeaD8aQfYjQOvL87uqqh8y9mgnqqehJCojcbgOFEZjBpjyNy8C4b1V+JqcnsloMb5TVx1lnMskViqB+zZSz5wDwwYLhNCi9xo3IlBB3Dok8B+hEyOXPeYzRQ1BgIOTo9dFwGFKpbNpiFKcUmbQUt8RfbC/agvmAqpa2O+yNks52kUWH4kTcts41JmvUF2HcwNLRbxd7nvIFjEfBIefoH3Oyz2b1itAsodrVgLWFc80G3VeBIz7fQR3UK4X7CsvJSRbET+sHJrAsrqN7ZMfMUCfp+8ggGnHqpKz1BqPrpusuHnJ4tVuNi3qnNdfkLaZn8oCUh+1o2oenNbQjrlBISq8GPQa1KzFN4zcMcZ3Kg/mEO76kgYxYMWdxwBs2dqkwgECn20QHqguO3z/YzELKi6mbGeh+E8xj3Zxd8izn7VjwwC09yV6nqsCBYPvnFl/4PsMQpegTWStuLuSLLJzzwti/oFrMIgFCqtf9KI3BY/kO0GN6mg57D5BIBd9UbeOB1my/LPfRW4kF7ie0yR9TJfgyglwbqbTFLmaGy78k3rq1pevoy4ihu3lcp1NO0bAOLepw6+dSWt2bGHkn5EtZu9MQ1MR7MURE21+E9zD5sVaIf971AKIkAgz34kEwNpflLOAyEQV39GPqoKNx+ZYKko8dk9cLd5g7lpp1KPsdtxuNerbBNDYQbzTIHNPKK779JPjsIad8QaCun/B2D3p8sDfpNLTqVH85X20okx2/1s/Gz5Qzvxs1N0+GdjhePibQBccKDhngx/v2EOXhHK+8Mw5rIzghOt+KzHMsllHNrDQ7r0kYbI37cbBmEAisXriGYW6u6iROblTzGsMC9cBowRED+dtOemSfjViY8f0bOPWG8glJE2NOzowr0V20j+HmuhjmGSlI0cD2OZZJ94pf5OVocJoILDg8nB7QqpiHD8UJB8SLCaB+wD+kip8hB3fq/DktsC1v3mrYyVTxCJA6DvQYmzxXhZf9Pm/nu1otyf3yav5TX6SQgBgcAFcwJbhojjTp0NJ1Inl25NxW3481tHFTNYU+kTUwiBoQPJzsKV2zIhfivlySjZJFO7mINTj3WP8arCh4hEdgx1HOzxM4I9yK0gm5D+xxP8uwpPSe1j7Q5nTXbRUnaNDloEJ14D7g/8M/A1ZVsodk5Eh/A/rtYfbkKlGvErzKaTuFBRR/mOaMfmEyxxGzlnlX1y8AL723du8SNq0NJPZmPKbhaXkcWenpEhVnoAUPo3zOKPwZ8lehlZQYsjL1UJdjFJaCwPLZHlJHGblTKHiAFdUDVhsgpuz914AI4yzhpchiJvywWUxaYeKrjUTxhUNQI40jhgSbXlw2Wnza2YT2fLs5IL77qFJ/h5+K3lac7GxUFmxBv6AI2eoGm1ZJLo/L8SfrAMouzvoPDyuJeTkC2rf0r3VC41QozvAkjYNUAKeNRchmNzEIMZsDmiVnBDagnn+2RxZ+Q6x1ENpA1uxiUlDvP8kQACTqRml2PxtN3Sq5KRhp/bMiUHYqPY6to4nsWjMwJY3iPeA5S36QdefKGbzWRc82PkLlotbT3mn+ytRCrjsKdCByvGbHjRxFvs1+1kSp0G0BvwTeSjYLyeZ5rrDp7oW2t8+OJdVaTjEdvFfZlzaAl8AT8lE3uCiwYV4kNN14yJUefaKnZrvrlgy68a80m2gyyxH4co5aDZSGo38Z4WMyL6ICVLqe2/lWqAad1gS+749b9pKzmfKuh4OWnejTXJiBK29ssUmFzXZ/RdeLfRraiA+Y4xu767wOxOf+mlsuOWLAWg3s4OfpYpAO/2VXSlgClYnB5w1E9bcwlfHiZwgSH/CtrFY6qZzTTFJmOJak7pehrXHrd3Ce52Qb2qNvYliQ9XzxmuLAwJVboeZDEaYl0OysXcyUsLQOXQVmOkL4E6LkuddoO977bMkotoQyUURKW03qr2+v4oRauEF1PS+hGqtosV1UbqITWYZSnrAAyMyH/1mY9bmuJQl3kNDuJ/mR3u8UvWfnEXrEuyJzlbuq+QCfmwPiT0CyEF9M+ZqvVzH7ZWkjS8d+idgmM39ydKDppjvYhUvaPxCYdkJtgAaQHLO/0mGYMSk3HXEi3/FpLTtM7sFEExHuZaxU033f+5bYQJQ0GBnD3+hFUJJ3e9NyP+mEIEV9VUi62bvTLPUqGhkUM4vV7RPoa/sN6JQzU8qORB3sO6A9ltFWXkWt+peWE9yRHNrdMIPpFKpAJ0jZuPspp9ikZDKbmjiXX68pjQNEseMRkV/mGpye/m0O/9tGMtRMob42SLC28X2kGOoWyTXyEAyxUZ0G0SYvgzyEoNoSV7NMpUAbzDD4ldj127Vi2/rKETGJAJ9DViTlJUECAibKaNDkYEKE4D7g/8M/AxRre9h+OwBujCET24jhaEz8nfn5wQvMyhNrqLa/j0V4d/LGZXeOIZ8CHPTPsYidYhvVWfIwLdqINd19AQHZyev3Gd8BKm7BFE7nf908TGZ/TouwSwINkYXDFruA3us76Pyn3qitp2iX1QTX4RgI/3aurwFs8xLK5icd+DHlL7/t0fcai/3Gzo017VFYY/knAE4h0PV6CBfkt1sDumqPsD97ENlG4eIqm1vH6CsxFs5nB+g6XApK3zCHOH/dh7VSmD2Q/9sNmN2T+dqOioM7vNovFL9NaaDkcGdDu4KNuAx6mir+djte3lcXt3+fRBztHr3mWAm0eAeiyw+tSNJk9mJ+yQH6Z9jC9oP8vgbu1LqbnFvWeH0JnBRvdoKc9+qdEj8Mf2NBxGGVHYPAYPIalFSe3mEKyQch3T/XehQr3H14V89Ki76oknl4wEvJsz5Nn69nhjBVbIzy5wAY8jx6khEDagfHheGX2T6XIETnQyd2TMFpuit/AO+Hk90WqfmqjgfCiDao6dR4wkyU5+VfyXtRHj50xE71WR1BVCoTpRHRrz1UD5T6iMiA6E1rjdcabOvo1mNS8XQocHLmnbWClbn5fGN9Bo/2x9A4BHCTWavS/be6qQD3NH+FgLsgmpm9gRQqkFPs9qeyQhIHb9ZdlR+335ZRk62Nrl7+zdqQ6I8HOSidYnnrW8G/lOwcjnM4LvUzUpHsK9jDxup558tGjnWAHcEzunzgIxNHh0Q18kiULrphPanPfJbrV9TwyAgpEsRCKWznAoBjtEuVKp4gc/2rxa+1xfjyK8wEdFZbg+qi8cf+h8f77uEUT608LOK0/5iNUp0WKdxVK0ovkBkWMUB7cTvYJfASvknftS41IXRR34/L9N3waQZkxXafxkfkd0GFxamhjHlb5Xnb4pnB82BqMwPBY87g+eIvvsb7U2A/xX9dwS7ca1Y6gKMmxnLqhpak9wNO7MOA5/iUWQNFT/cr4J5ezTnep+RkQPIaaJPC6GFRvVpuS25gX18ph1rU/O0gx/gRzzuji77h+Tjz9BNn387cGQNPpOhr12sbWhKC3n6ENFPBGh7d6bnfmwPJsab8H6gpE8KzmgwJin5607dxXllzVyXmjws2zOLYVF5NOaWdWlZrSdvsYhS5HPS2lzd/mknvOEFXzFDs/PUK4EL/c8QbQmKt27R9kxQIGYWnyCvqwr7MY6jQ4+BClCA+4P/DP4LUaaOVEq9KjzYJjnDQw7W+hOf4WaRZHUqTvEamRlENrfXddiy5IOa/SpxWACzAJQi/sCkJgeUSZvqpIlOm4ARTFo6IU+xhbJtlpLcJcngb4t8fSGUtPAxhLEvVa5X/lLk8x//tukCVkNy+UFCEzLzGet3eIZ1BuNrSK4wiadg5Nb1uWlGbU9AvAUwocIqv0KQYul1VoJo3fLnk5aotRQJp3i4ZMmquq1IQaZvZb1tgOJ93R8WS2r2B9mawqhz3Gp5QTV20YFNaYqsFAEY5f3SfPrqLSJ0Hnj5jFj5JbkgDPGkL6sNPom4skFI/gF/Zklij86Ew98aYcrhVA9gDW36nZBv94iA3oWHjkVVg22ufJddGE1TmQTYUNYQh/gP1/jmcylocflIH1s6SCwmjyVUU9nICMRpEv81nxVr6vMLUGpxYinvlbsom0wD1vDSzK8B3S76kanjilh0ppnlz2u8i/ZAST+z4WnE6HS7PLrQ98LCVOfKvJPzNrLchOwEDzWV3+caaXoct+BRaetqwrr/7RdCtexDtrrC3Qx26XQcC1MzokxCthSacj6RQ1Wnmfbaozp86fwLObe0N44ZeOrP1KtUAL9Vrf+pxMNMaATXZiuXk2Z6lEUvoDbqJrgIkBQkjp26Qnk9O2sunax4mPUozy0ItiSzXZBnQQQtz6fd0LqX9PgInHEYNRq0DIRO/AVvnFIIA0mx+OW9llKOJ1rPSQeUdEoj0yiTbhdCzAQEu2GssyWFxP3lZKsCRzEFGeM8U2XMOQjtyaNHDF+RjcygWhGSaUOb3XbzOFCXLYzmh40mLL+GkEHiitLBgD+k8Y0849C/MMm4QoZLLUKyDZ3mrDqkOUZ71bag0S1VFGlMITtOfxPifa28VO5PfHABQS1dUmwjIr9pYzBitchoMVrCyDpV0sMR876seLtmY9DlYfLqzi8m/TL3FYA1C59PWGBW3A23XrQ/J7Mt4Us3S+SZHbRmdk6HefnhZZGzmpM+p/SHUVO9wX/qL6WeCU40GdfCLmG/r0kMmERg+aIsm+BZpbFaCv5Z/f+YzAr0hU4XbzYfTRe0l6JsH8d7ez1Srsq+XEiZ/E9ASYPDE8z6+PXWkGnXq7emSyK4ZasSvdjX4DJz3yF7Kz7wsKvSFpxuXFmbl9HD3i985eYWyZNRb9yYM3J/bIiF6ZaHyF7mcNuj8fBO1hS6y6NEr4EKi4D7g/wM/U9aRGAiyv9BqXEtutkUqkvaGSVPbVo/E+EzUnJaLv9kpktk7/RmmtQUtOU1E06Nt9LnPIKglpyZFXvDNMi6CsJEchZFOcp4wbMnC7EKrE0eCYVYN7dEhpNONNpuA/3+JPH6ly2HTpegCQ8ulHpDLC15+uozUaP9wx+5k/nv+Fdgo3bDLyynucAdWLibdXmkH1wvMzIGNjdGugSsnIJaeJVq6OJrZPuSsCPD8YTm+CEltlgDvoH/fX1hCisHKi7syjbsgRKS/Gfp0ej4oXJu0ZlbsGuMhwX9vcmkSOb0bLxVTsURUDRD239CdFqQL6v7ispVE/6XDs5+FFlan8jqOo7LQ+ZilybrxKcCOZKvyVlxLZeR0KAwDVt9GDOyWX5xmMiOq6JbUp9+U1zRlzxz3Fcn1kN8Ii4fj3kX9Hv4/c0R3B4Wkw7WytPQf+ciW43E+roEBfLymG4jKk/uY0xSxBrIbvbg3KV02RoYY0e2CjZ308UAht+QEj15zLcIRRJxj8ss7PrUVThrMe3YOeaPjFhzSq54Kd0el6/0sYFIoLUz1AtzYDm6t3x4YSICgFG32/SP2MrgM6oechZco4qKZydwxNvt8EvHdBB2oQYZmLR+zcbaHkkORf7+N08q+kq1LgYaFKkeY5d4QZx1Ak9gc+FXHW7tw8Cco6AExi6CeFU/ggzQSR8i/xqQDHm/0t0bH9RgtHE9G+r5Ft82Euu8BDM51sbmW54MZs/Xi7sBZbKvBuUtYjN8ZeYJGbT9CE7s0Ks+ZA3X42eqK5DqKCn2e/VWLUn/7xub8eca4mFkGv51FO7tEF8ivANzXt46ltkJaMAXQ5/4CPmNqScDfOgtzQeYRhCyCurVV0dGHn2OTaoDE6snz2AehBcW9J957XFmtL98ai3ucfASJ9Y88zK1ohKzq2jV99y2mG5ERYh0Hz4o7F75sK+gmHjt07cnSFRPhjjRfR8cv02b5inGmETe66B38TMyef9KsRo3ikJpfXHua8CjcdwdcCtI/Y14G8+ZjfJaZrjCpOY5QyP4s9F4efhcFBheT+r/FUgwG0Y4i3Kl9845ruATfdHbZxjjGORFqkr1afUPooQUIekpLo/BkF6/BD7UeCmPG5BGBFvTnXymHosWNV0272QUPJGUkbyncRDx5p96w1pvP55om/oPhH4i0VlHKiP/YKkNQf69K8Q1VHzNVFGINPQVITZ0hGUNb3fGFVP1D5W1qCN8oCUPJX4/0A7rgNBclzKgcvskIcnKrWn/i8Go0nx9181bb9sA6HI6vsVmExcxjS6Ymwx1E3kXejvrsfG+YgoUzX790dSrGIPwNqKXprutbTKxTTjJLrFwiQIAt6p6nzH3Rs+n6kFJJbqnoYDp/B8ohnwT/xXKsThviIcVAm0JtlJnkBKsJA6OtrkQhYT4l04wSGSZ5aMzTYsU0UaPiJGR2Fwz0GUXI1Y7O6yjwD4wKOP8rZT0s9gkoP2fqCYbaq/l1PmBMfnEi9FW1bJzwIxrolSzf5HbXu5MqVX/h6oyWgq+aSa+wcdbp+0ZAPfHh9zubBeWA0X5JBHMc54/eJRuAUXv3hwx39JPtyPCo0PIgQrHgPuD/BH/EFp0RL4PwHTu0NT8swR44WTm09cTVb8TUsWjBvDjQjiM1gx+cqOKB8loAbkEKClIqC0mwabTlCXbT4yeHCUE+KtXISC/BWbINpr1t6nkv1hY2eULXKY080vtEtg3QjF1rZvqXz0imTboVSqWrhLcVtVRQEwAI+hgmnzk7kyUar+5z0UYMbY+t0/ILDT4zPzdUJmeaD1HGkvsGIGHA6SvhFn4Un0V4rD1IPMu7OsHkHL9Jh1PyGCVlgdsxLfGzlneuFKS/i73wyDELCUfG4EqlMZEeLNXnAmWp9r8niuResPSG8rMqY7v4ZG9lcbczAidZ06afJJyRiUIsb41ut5JDUxYZN5uqG02rsMUyOvNwwxDYg54hsDH9ek2KATVyYx7E+kr09RIcUzselJpPYdnPiioJfLBS/TlYKM4d7YYage2WkqzL00/asbCKvN37nQPAsEXjO67lk9SKTcQAMSpGc6AqT8GrNPmFDEy3OvQj1gIWeO/znmKR9pk8C+xhCRAlN3NLMSp+w1Divujylqnnalo5r41vS9qjne51/gPNNrPhvJQ6UyayNFfgYO/BkTHvRIyOsyTEhMeUcGNIpIpdynIPwkZt9voOqtlW+Kf00olrEgf56raSyXA3Pc7RlrV0wOBsK+N4MHM0Hyq1ozDRK2KoRGAnrmlRNDx5e2ngdgZD/MwNE++3aJ2OcOiuQ2zN8jtTLMsdGj/QX676otGof25UIasBsyCOc0vQf1TViNGQI/xvhXdH/d+29XGURlcdQW+6atsQAm0gMhbDaFP5/k5fEREAXjuZplEGBSS5aBfmEwY5EBleO2bnYlsYb2amhQ69upr98h4OTozGutSYVIW9M0EeA7UINu0z4aVj2OPuWKnF4zaJat0BnqZuQHp1RmFabGzaaI3L/J31yBXl1X2lasbv0AZ00cnvR5pZdT3D3Qkv3/pMumhrE9BeMGgsVaMbZbm8UZ7p6WtqsbW/YRRr77HBsCf90PUucqQ8qeCMSGcYeVAD5ZRZhcbhlMeFc51h6XgSm1ll8HbUd6dXFzEM6oUVPEZUzw13s8OA4cJNj9tdaaP2x960eu0OVDI+eDk+PL0bpmbwcPg8a/1/x2JfKHAqg10zCu7efpqtTMVNprPIGeuw9K/FywBjfg5sBksRNlSlx7nEMRIiB6plZf7ENdegHvjcAt5WYPqKNamcP4Pbd4KLRGnLzm34baH/1YlK6QHukJjbll7ncXDLbCGPJMHCyA1nJoKNy177z+MUvQvLyvgd69BMyGxV7ajQ9OBCwSA+4P+EfwSUKZ0t3oqvC6cGQsWnkU+49JswSimvet/frEwy4GgypnGUR2a1IRB5WWZJz+0m7oTL71DP/n4N3cH6V20mkPRD5GIPeKl4uws+E5OnICQJnGRws61REv5sOfOQhhuOFb1cvtoIDWJ9vHZrcMaiW4haSo6Rq3Fea4r4dP+AyzLld4PegjLV15+G8rzxfCjnMGPynTd9FwLPqo3u+E/JUwiL34p1RKo0hhaDDAka5me/msJA/Mt/rD7B4fhFe71nZIQKP1kokhT4idz0dL0/Upd1Er/igjqu88LysnrL9lMwCBLtzpe+ZXEyeNb8d+VECX9uoboYpXYwZ6wrJURcm1bhERcLiXhsKzl/9AaK/atkBXanzgE/W4TgbOVw4D/kHfDm/0QsoO6Chx4vpHPookTk9YO5tTpGUI35VTxz2nLNKHazFlvOkM7IkJg2m3neoi0Drg4bdxBfMWR7KygbRL49JgCjhlPhrlIbWK4W+uWaHwigqn5wS4xyxsk9/7AHElb4CY0rXYya1RaE4x/7+gqMTm51YA+zWgG3ERbm78zSvbrsQgV76CTPMChHCWqoFVai9idnMcm+5F9L2Vea9rgqOIF+3QPBnZjMdH/gxsF1pjSy7mQZ/F/WTxv4fBqcw8K7rUFCCX7wgMolb2b0ZvgH6BJ5AQPunZjAUX8xq+dWml0McNLLs0MAS28mY9O+S2Mk841H4bxmbzAxbgQajFubkKRU97XiBRBEX5GPZMoL4owKYxGrjJzMORIgcwtCjSXowqWrWO6irTF+rhvNX8Aq5mPDUORPMwCh4Gu93x1BQJjczn6RP7cD925Ui4x8ScSt7uemxQLJI+vFfrrlmU9Oxja719oZ1oSJ9goG7JYECFMU8iKWdWhQoHoF+sVBDExyEAG1TMD01YY5GR4TeNk6PKf4VFdlaFCUKrF1vVB8HzKYYvaEXz3sfDUPW211HXm0zgtLwRTN1xOS+xzSJybiyys2PcnyY3cBhs5WCZKL6+2najggFFGylPqIthngfAmJVH8NUO3uaKEDK9dDdtC9f1sfq/e5ux5Q7TC75fCZiCG8BEHG2KcAMln9Csz40WDNo3b/ZWiLtzbEfPP2wtWEWtVj9frLV75+AtEEGj+l5xUOG/rpkstZJoDGaKDfw/KDVMwmgnWFa2Ox2+bqbEF7q4tT04v2alFjjiGbukCVwW0c0jHU/P+avtlDuNJyV0e2pWHBUBXdLbVk1JdcPtC3X9EC1lv+l8x6U+4rEa54wwVKVFXF2QsiqCrH79RMnBXR3fscp0kRlOXo0PMgQtAgPuD/hH8EVqDI6R7eVJej7+swQGVq5m+qFuYpOMGhB39/ax9ZNnrMnzcXDC834Y/zD9swK05ASJ3l3ju8BWGgOYcfC22vFFp7mOYe/+RkMSIkmsknq/k8ORnQoAz8bqvnSy0AH3wNG7kp6IVkqUFmI/XShz2N74xIZGlNSwGEXL+swALmG+o6NAeZYbXxbHlDV7M49jkybuUP6iegB4A3IbILPD5dO8oLZ9nI/V5LVg0NdiIiDLt6VV5eJhBuBgJCl+xWd4XXyeA6VzJ7QTcaX0LxaPp3fIHtmm2ZuvteRYsiduYokqHrbAtUbEbsSf8lPnoJSsZmGun815/albDMj6lu4c9t8pNSz0vU+Qo48VhYdgqQ1za4UcuWEEL02gC0pQEG9FRrnV903F4DoX4R5mY7k02NiTzfj66d1zPEp32IwF9OyKQYDdRrT4yO8qYBoLjG6AgjoLeHV3Hwr0wq3tPVBNKQq/RnqU9hQgb5vdAU2kVO/dKjrf7HKcLzQwWe33UJFB5wL8JYtZRU83jzQh/vXCjdDpG+6nENRC7Ae3Sy7nL6GNlm6dB1HqTjqQuZ3gSal0fPQ9ZfIya+hO0zEekBsj0RPYYlRECYxwT42OHuAmv3LdCNDHcoeTzuz8E8EzGkvayzan50HLEJokINsCszxswOsMk6oAU/Gjp/uBOgovQHSNLa65hUZZkrV6VdBUuq0DPmcHiu+GY2cdx86hAMy0jmzbCqHaetUqD48TTsJUtULGFcqqcr6ybmxxfAuI8U/5dksrS5Y0XCqlXpuQVC9IvCitwPJC0MZqDgDn0fX2HbuFPFssfS7sZZqts+5gkIXokIBi4gAq9E7T5hmzj50XhNJ/HUVOthoabMTTAfqssfBNqHBF2KLtWDVfEBamPLSjYrw+xehElCZ+wYraFVk7GlP6xfo16xFLh1Kq5x+/qKNcS+teuCsg6SXFG/lEApZxgUwLFDRuvlSxOOA7d+YulIczYzFc8gc4Fv8cIcPFmxs6ch31ze3zKhxIdifj7bLS02wZM3Jd2S5FM8sO9ElfN0MIj6QpYaQuM3vXYyNlsUcwnzndsjxeeGGHd9uhwwsYZLOD1lebn9tXt7JsxpF0MjJ6k3z/owVYqkKxlHrWRhKFkbsHeJqMimVbKj5dvOW7lAFA3IfW4jC1C3Fvgphol5YVSEi+erDaMsBIILS7g0M8IKVkas+WdpIYS/YmZAOscXXxxpMLTpCVDFWYU1ONnmWRG14YghwPJW94Pw096AJFMXxUGwHbAqRjXr8hDlbQyCdMoo0PGgQt8gPsDU7REyduhh0++fbDhmMCVrfeKxxtr/0j3H8IT4Gcug2ejCIzdgoNrUM4T5omWooMEdASNnVJjNX7JTlKvfXDtwhdvHFKGN39E0PQG399iBaLM1dj3YGje9GL6uWHZr8gqmQFLxyZEHy9KA+JirghhXMvYiVg2sou33aM9n2HCugoWD6uZXXF7ctZjPd7B4spZQOlHRUEzH80cA/PEgcn9io4PSH+Fzp6CAmxcqa91ZxJZ1sGbOEek8Cst1qDsqKxeFfr8uyFLws5/LT6fDPLSvMf7WntNun8H0Ybf1q/Pd2DrdDgkimGu+etGasOc7oFjOFC+IpVXgCibwyfJDuVP+60QQrMaPr/LDj20STU+Y7awl6Mb/ylkTC3ftmhBuHDJX4YeWx0o8NZu22UpFG2fjNLnj6ogdtb2tPABOdh356BRr1VtbCJNgpunA/uaTGHHrZ0rS69W8v1SqFy5q3uijAox/3Gx2wAYtE/kuXakWy97IACAC7c8FRmSM+kGeOBGxFuRZ9TIg3AGt1UKHzVJPfd7YmrlqNeLI79Qr1T1jecrkwT72Ho/tDPbA4KckSQAckaq3UthWbZzGV+GIySPOfi6GPtqXYcHWlWe6ZIbaklp6B052xDgoZT7C3qGthn/4dci49AlasR48a5rK9npktnFoGZkdb/d1EYvfDUGBt3wBxJjNOWv8Oce2/bEs1xJl1upYgt/Yfyvs9j23uEwHnqV0MXuERKzTw5QiYH0X16AlZ5wnsHtfFFAdgZfZBzY1Fo/gMX8ODvoT+6lOA1zYPdLDGhnWjorc02Uh/r0uXZqZKeLOt6jBE3fDoyUJ7874kqiR5auCtdk9AmDOHz4bVHrT1W7xw5oKud0qGkBPKV1KxeQblpkzT3eUbgeFNryqCY6vLhXyKu+JRuLS+FnLn+mDLENc6WvQPqbce036Mt6ctKdqrN9U4dLqaCmgqIEc2y0RZBEf2aCmgLxgfGP+eXug0jFw3BF42MjchbDAcCEwoi9aeUhVsHCTPQkucX1cXAfdlpm6Hq5DSwU/nMX2WCPgWCoUgmafh0pMe/k85ZBdIYEj7xk20Vds1Pcu81TWIJJQlLbKWSpFlu2sb/nxY4QJ6uG/QrB4ynZ+0YM0X3gzvbMhPgDMs0/65gf6iFTRNV8im3iHFjUA5mR3Qptiu3RYaKXsqXN5ac38uAgDDwWPQQwUg4XKRPzbpu5Q7zGyeV9dvVDtuz9xiQNo2+P8FS55pVVUoH8Xygmbd1PekD7JQ6QV4eP0q3+XpKEoAlco0PGgQu4gPsDW0VmCRJfsZi2pGt4CQy8MJbCZBVWspoiBo/bXUP1LYYHCbwidXUjfou9g6OMEsaDaSQeyzSJVorf1zPibKzZXSvXpcTtyrj,,,,,,,,,,,,,,,,
