success,timeout,failed_images,failed_audio,failed_video,trial_type,trial_index,time_elapsed,internal_node_id,subject,audio_id,rt,device_id,view_history,stimulus,response,estimated_stimulus_onset
TRUE,FALSE,[],[],[],preload,0,5037,0.0-0.0,u9kxkaophf2yv0o,u9kxkaophf2yv0o-2024-04-14-17-24-40,,,,,,
TRUE,,,,,fullscreen,1,8007,0.0-1.0,u9kxkaophf2yv0o,u9kxkaophf2yv0o-2024-04-14-17-24-40,1966,,,,,
,,,,,initialize-microphone,2,14810,0.0-2.0,u9kxkaophf2yv0o,u9kxkaophf2yv0o-2024-04-14-17-24-40,,dc6fc9a879c7e088e16539d8e794900e285f063423db5b3c4aac3bf0d1b03558,,,,
,,,,,instructions,3,21127,0.0-3.0,u9kxkaophf2yv0o,u9kxkaophf2yv0o-2024-04-14-17-24-40,6317,,"[{""page_index"":0,""viewing_time"":1601},{""page_index"":1,""viewing_time"":4716}]",,,
,,,,,image-button-response,4,25631,0.0-4.0-0.0,u9kxkaophf2yv0o,u9kxkaophf2yv0o-2024-04-14-17-24-40,null,,,images/instructions/movie_1.png,null,
,,,,,image-button-response,5,28334,0.0-4.0-1.0,u9kxkaophf2yv0o,u9kxkaophf2yv0o-2024-04-14-17-24-40,null,,,images/instructions/movie_1.png,null,
,,,,,image-button-response,6,30137,0.0-4.0-2.0,u9kxkaophf2yv0o,u9kxkaophf2yv0o-2024-04-14-17-24-40,null,,,[],null,
,,,,,image-button-response,7,34640,0.0-4.0-0.1,u9kxkaophf2yv0o,u9kxkaophf2yv0o-2024-04-14-17-24-40,null,,,images/instructions/movie_2.png,null,
,,,,,image-button-response,8,35468,0.0-4.0-1.1,u9kxkaophf2yv0o,u9kxkaophf2yv0o-2024-04-14-17-24-40,826,,,images/instructions/movie_2.png,0,
,,,,,image-button-response,9,37274,0.0-4.0-2.1,u9kxkaophf2yv0o,u9kxkaophf2yv0o-2024-04-14-17-24-40,null,,,[],null,
,,,,,image-button-response,10,41778,0.0-4.0-0.2,u9kxkaophf2yv0o,u9kxkaophf2yv0o-2024-04-14-17-24-40,null,,,images/instructions/movie_3.png,null,
,,,,,image-button-response,11,42349,0.0-4.0-1.2,u9kxkaophf2yv0o,u9kxkaophf2yv0o-2024-04-14-17-24-40,569,,,images/instructions/movie_3.png,0,
,,,,,image-button-response,12,44152,0.0-4.0-2.2,u9kxkaophf2yv0o,u9kxkaophf2yv0o-2024-04-14-17-24-40,null,,,[],null,
,,,,,image-button-response,13,48655,0.0-4.0-0.3,u9kxkaophf2yv0o,u9kxkaophf2yv0o-2024-04-14-17-24-40,null,,,images/instructions/movie_4.png,null,
,,,,,image-button-response,14,49168,0.0-4.0-1.3,u9kxkaophf2yv0o,u9kxkaophf2yv0o-2024-04-14-17-24-40,511,,,images/instructions/movie_4.png,0,
,,,,,image-button-response,15,50974,0.0-4.0-2.3,u9kxkaophf2yv0o,u9kxkaophf2yv0o-2024-04-14-17-24-40,null,,,[],null,
,,,,,instructions,16,60815,0.0-5.0,u9kxkaophf2yv0o,u9kxkaophf2yv0o-2024-04-14-17-24-40,9840,,"[{""page_index"":0,""viewing_time"":8964},{""page_index"":1,""viewing_time"":876}]",,,
,,,,,html-audio-response,17,94733,0.0-6.0,u9kxkaophf2yv0o,u9kxkaophf2yv0o-2024-04-14-17-24-40,8581,,,"<span style=""color: red; font-size: 24px""> NOW RECORDING</span>
        <p>Please say out loud the list of the actions you saw. The actions can be said in any order.</p>",GkXfo59ChoEBQveBAULygQRC84EIQoKEd2VibUKHgQRChYECGFOAZwH/////////FUmpZpkq17GDD0JATYCGQ2hyb21lV0GGQ2hyb21lFlSua7+uvdeBAXPFh3te4PGzhoeDgQKGhkFfT1BVU2Oik09wdXNIZWFkAQEAAIC7AAAAAADhjbWERzuAAJ+BAWJkgSAfQ7Z1Af/////////ngQCjRCKBAACA+4P/M/4KiiQGBtt2oaShrEna8MZhBB26n0EYWpbqbCiRD7LcDWJQ6SyghIfczRweCUuDKZgI7zZL/QLmNia46pHbsNtRio9BrlKqjtdKkJ+kiYF/D/ZeoaVmp33divHuqJmAfj9wAutjkPug16IW++6IlE81p0Uu91ilwWnlIcXjLW8Rpq92hD2kV0Hs/JCX+bnLXV1uLI2s8zdzrz+rqOP0cwQL8pMDo4XMDdT8lJfisxW9xfk/UNGqSJXzHqgw+XUSDhcMHrQD6kP8Yv48outtW+E+eAAAAAAAAAAOxPfFFbNv7/mxp4ZTIXWNM/IaTWGa094lIRGnjunPF+QyyadfIghyVesTVOFZyB2lhPsT+XH18it9Xo3izulrLyx6kPDTu+LNQhNk48oZhCfgVQq/QvrTE0WXrlpM4wPAF56lom7MWS035HvvUCzu0dk/gMqXr6ywyaiK+DRCzVbM0HMmhIB4qqSVDdoBqMuKAwVSPESw2BJ0nSKF9CC8aAYJsAovZRnedvLRe+vN14TxqGl/xbJ83fwmcqSyPAIDOx+jjSqhzwoVmWWBKyZEsg3/Ii1o0xSLTlINhE/i5NiBdUU/8SbA6LHkf347AAyLQnXQhbD5wvGbLdZfE7n5UpHJ2NQ/BcR9DRgItDMLcTLlZMU3xVDMQDXmngZsF0nPuEyGnYdyfBI+4+4spysOwlSp80N99p048WNGYwGz5EuGlAFD0gM5BzXYHnxe6c7qOk311P6vZFQ2DlXSf88XNJoBFeC76LfAbRK8iZexOnQYSUzmclv71tE1BUtquDLG4cRACLvT5uEuly4VFCuKru3rmCYkliJAxp356NnjpAFckOgCEWLm7/OZ/Sqc7Io7QhC5KObwW+xxmxzctaFewEEK8flSV7QeaLAeZgqq1AgVwcturhHC3JHwaXkJFaTp8J/uJxfXu9Qp9nuawBQJBO3jTDUJJkTpTrnGlg/78zyL0S+dPqRympc+NVO6Zae4dnRY/sYYcsRQmDPPV9Ag1LTsLEtxDVhnHF4El51//5cjAOCvpeAE7Hgb5He8C3WVy789onjqmrNkJzmYcSWKo7L3IzA6eN9Gy002pYONlT/yBBF5rupzSy3ComFPb7NGBXJjSp6bj91yqBEaIiOjd8+C8MzmuMy5j8pItYvqq8XNqun+gp/r18Z94eyP6HoCRMWs4/ki0Gh8UHrVhFmfpzos7qAIyoCvkFl2jfzAMIkQnSxngnH8eDje6P/YqZvOu+Ik0NvHMSY1wat6smQExIizA+MLgDUTfygM4lUeMPGC4CL+PWlXBPWmZP1iREK7NXxeSJOObAWolOunJYmqq3o686c2mytpt1map4gUC+ayFmukgcrHxJZBiF9B6h+9nz/n0BTsPw3Ej8UU+8ylkqNDg4EAO4D7g/8K/QuXnMYbf+c1zje8VfUKFVmtBMl/DUV4fzu2NuXvHMw+3WrVlkydJ36Y4BrxRDKkjXqKopfyZPy0zIxQ9HfNEgvqNPSorV2ng71b1dlQMyOE4qxdU12/fVqkGEutj42XUL2SNL+0wjc3N7DxEFP8eL3BOKZ4+t/LwPYS0TghUKrwRdiayl1ag/r9Y4q9FC8lj8bfAegVj1ce5R/HvgdfVXQKIYhq/WPkoG8t3q+F4CS4RvnsV/WAY4FUh+5LHhj36rQyk310c8GyOVPctdVfVK14aZVbyo9dmU4aaR+qfEVLbHOIGadgUa8kxwt1kwUdAdi2Tm5oY0UeUEt1kWmUaXM0CYLZ04ZN/nyPEI+uQ48gU+slBtqaN9B/dVNg+MKpK7npSbt1LDCWmqt7zVsgXIUByKQD8v7Ig6rKZ2i81YUPIyBFuTdvoYtz0zLSmkf5iPDA0H2QihO9hwhjHbs9prsS0nEca7jONhy38XNoBXSIOpfDSvTQgBCOahTCbvv/nwfW1keHZ5aDVnG2vC2/Y9aeukhK3m6VE+E3aVyxyAA4sY4kqRvkNBX4HLG8W5Sp2SgTM+jGg1/SVEgU5kMsJWojX+MB6+B2eEhqvMNWpOOFLp1elnqaFp+ZCt3jCpEYzrO0GgZpEp/SE+zQltgmDlEZ8CxcGt+p34O7u20f1ONMN/M9Tm6Pr7iOwV5xZEL2VUXEAN1x+ndQWN59oZoeKt8iMIxqsdSOxhFSJAT8qjkrH0qK4xAvhzqJ98Wd7eqWfrZ5CK7Mv1VmSqJ5XxnbaVOChaup7odfJaYV3UtR48PACqYy9WQKKlSsXhV7/iqSv74vs8iEyYGifXxGDs9VRVztWnBLo/o70Pob6J2bSZ4hlXZp0T3Rg4flT1D3S4wPBhGTfbd0b4FuwxC+Y1x+Z/WvHg81BurwTZicUA8zHjW9WiWM4cHa4N9lLrx+qnvQKCRfBE4WKYURsM1EZeBjevSxIpTPUB6BjmJlrr0vgRQ3gko/Dt5QfxddsdtC4GVn4vpnfm7+A10PHLhiYC2fu3b+xk/mKgvjYSx89wa7i7iPSkBUOgBk0UWbFXgcygLBVRKs7o+tiC8uZDeW97VYfe9uV8My001N0FGsgo9ICVNelwocB2sGO9cQQolPD58DR8CPetREPGfqjcDQfvL5ygGMf65Ausaczp3Ao0O5gQB3gPuD/wz8EYJmC00hPlACYP8/MvpdlLUDNQ6Btm4OYCH9itnb60gErN/b5L2Ci82krNijbA8POhtzrjTYcJaagxtagTfJVcHzpQMR2j8R7/dDP/LrwQrP60lMZUWPpIeQq+13gwf2A9TLESGNLCJg4DB5XQNfmam1doOoKcDiPLdUkyblonr67+IdCm9COytTHxcADyRFuT4PWO47EW2QnPdVyrByhn8DmRnJ8oyBIlo1fR9BpKpl2NEdD0lqcLY3vQ6pqI2ktqZcQxcuCZqW12slCZLFnYCwTI/hD7fGJg82NYhvUuTZeIW67yCe78KtYRmI3kgyB0lbQjb+WiT2GAjAOkVitYalOiM997gImps8yxQh/V6DqmTa2SM9VKNjuO1anVIe0qZJfTs+dgPyH8FLJpaIUIVXN6MZh7h4B2+hSLa39xd5l2fq0Fg2OeTb5bFRP8vsNHMbjrbc79d3vMBj9mzV5/w9n6zJI3e6BDWQluBf0iQilVaAnIXcVctDB8tmxRvwSp5tJ900skUcoJG2agpNvhOLNwgWpJmqqDYRNsQ/hDNXrv9Q/yR9Gb36XltttohEsAL9y0icJsaXnOXEc7S0sJG7dI3vQGHuJ5k6hnrglBg0wXupckbPRgxgyZA5wZXpOTgqtiQpBDePW81LkbWfgJrKlx0FrKMefHko7+iOPCm3+UpJxntIzNe0eIrb6Damn3D6rYikchNlKg3v+zyZdfjSul8xAgt+g8icSebVeP5QF3hFR6qQENHG9MEfXE+SaKslsXA89eEs8vzFFnx49JgeiKY0jfup4V29pq9IULjkoETIcfaz1x82Pky/EevQhVvepl35VSmYT+Uout2rn9Q3uCsaIgqBMja7196N3nDbiAF76fyK/38bCeaa1atQFaLUfzumgaswG48f1lV4vgrEPXHU43EkPDv7UXrc3+qdvvDcsWAP/SVDIVfRLuprkmrC6586PfYAmyCK9gRNalUXzpzz7/JwkPaBpGRR/7GAnbHTmavVCjNXoBycBnlRsl5VJ20DWn1SolbTy178G31pBAAGecPTWLFcaiqRu5i13wLb0DPVUab5XHx4KQg5DuFXcN3LyoArIzfb0flzGlWFvh2lyPX2isj00FeSrR3Bo+kWLOdczqjiUy0mIUazG65Gz2n4t58oLR0yLV8qBwCFBp5D9pphBnMiYPtyufoGVc0602JymHmI/5JXJUc4Hvanf7hTta5jMtKsgZeV3JYBuHrdiUKGQ9EAxTjcNUKjQ8aBALOA+wOFW3VJUvCTf0E5lUJRI+Id0rQmx3PIJLfA2maDaGx6Keq68gegiDWueIaedG02zLcl2EcHlZxNMSWZMjONkhmnwpMckwdghc50lZ1jSozPWw0CLp4IKKXtbBayBS2v0PXvgQFKz5LsZ4n8w6Oie+SZy1aZx6bKshm2jQe/RGnDJ//NSsRfcccbnVwXvM7EoIWBalilH8564mtyo2PQEy3httInn6u5+ot1CJAWNxfWwElTZhZakB+PNzgI40X5HbKm3igFAm+j5RmY6CQoBkYc0IU3YPYB1fM50Y95iFJwHca+dEFhvpSQ+GP2VJ6hnYPFZBxtVJyjAppTfaArZJ62N7TEnBT+Ddph8p6uMJ9b/WHpTzPv3JWobIyaEW18ajgUbZYBW2I7wpIGcZNl3gRg9F128iM8nOYjokR86fs1wIVY8qKiqHH3C7nKg5bd0Q7N3Z+AcGoznymC9Tu7GxmbNoi0bA3iz5VEk/xuEqSjpBAARPyBTklgumHS+fo+0NcD3tQIJQDfWXafu/QUMEKGwKnSODLDXBLAZxHy0KfKoTp/FmLpHX5/SQ6Dq0L6yIrFkp/CFn+nzl4VRkXIiO7rpAIoCwka2wUmDQOzuDB/qUyYMPdzxTR9DJx9H78HqfT97B5H0+mmxJTGuIJfRJBwAX+5hVkD+Epm/95LCYMNsFiiSc2/qdql2ZgNC8vHjdft+cvskSd6L8mOP68YYuWKgEzM4/KTafOuXbM1q0WJ2D0h2k+ztgE0SeGgzMbf26UfwWPSEnh4fZIXjjiHsVkDO5RfIrjIq7AHEZmPswxT+wkJcyO9aa/LYIVsrWYsHF5Qv8uJ5/zDqDoBAieYao/QhVzACNIyk+HXtzUy/HrU2IzzCXFNGJzeQiqRGVwLKzDuyXxEsln7jIjCPTZMAXSabEP1sZdJJ3W8GZ5fMkBaeM5NhW2rYo6k3oiUoDLs0mgVQgXBLrSLNCgePk1v7FntK8Tk/6G4q8oH8pfDQ0lHccKoLR2PqW/rQK5XAXuY0kfrs6Xqbp/FwzX9yU+fz4a715KOhGSZUOBvf2g60Kv3Upg993Lpayv/GXjdt9AKeZWehJKsbHFgwOk76zKFxCP5YM3nloNEvBGgzbQvuskTtu4QB9Vdj1cmEOe5lat2SsT47YUb1vbyl0EOHkbebqLDI/U3zmkRfRp5cl62iCGpMbCwkewODqrI0chiFtqEJa8Zyx7QjwwLrlEbZdS3Pd2lQnuB6YBvZ8AuD0qVB5gbSsfJq6K4tS+04iG4xQUrYMCjQ8aBAO+A+wOG3pMs8MbU6sLo44GHDIPT3PX6nVCXfrj6IW2CXUWTk/DcsJLZ6cJLnm++rOxnGfxlv9ZGta2qUsGhYZnfN5Nv6x0kCXQmdJG3EtrOOc6QGwwFG7q5bBNim1echm1ThVnSJx4rQ1cUQWR7niOBhZtG5/WIq65pWSk1JkZWB/J4Y+kmklxkwyGBtKKfhvRy7XC9k3jAc9qkCy9WtYv/kiUCrWgmgQit7Q2UqQSjghDK8iqKQwOCSp3AVc0QKrhMLVXNyDdbztRbcRcJi2cuZcxUqY+/DWSRt0FNP4za7adURLTdqMBmI99RueVW5+j9756NEPcNcZKVX1MBqLlxFgPHO8pqIf+HwbkeXHDFd8l/8LwSGIiEwJtA9WYig4Ccnr+WCrM9vumebAafrmKU/xMzzTIxQqQ3PNMQX3a0xEFvoobIx4nUXGSWi58GyeevgJsvpOZJH7syoiewjdK1+pAiBXqozE+wAalAtJpUrAFJZ6KzHD4Cn82gkYM/hEYjHCL/LqI+zw1otBK7rm4lHnODXFlC2xETEfDbmBh8TutisTUJ45VpsHX2vknvsoAOLgD2RlVykO1mOxvfHxFTGrUvuGjNWT3jqEcgynH7hZDd8feW/zt3fE1nvQ62WvdmdMwA5JiTktpyu/C7xJeDRHA6w8aOMzIImjdwUIHVTTA0YQus8+GnYwr5qniEAfdwIHD/g1HlYE44db8ow+nVg9B2oKG7Crm+g/02di6YUTDjni52X39WpkpXWWLRn8F43TRpmL2mfiFCx/3NJ4rFkZ2eCwh+mrJ1r1Z6lfWGWfULOmXtGvC/mVEd0xuibCvih70MANprpFoQyH5+Nh49CRvAhW8oEDmfsZ8QjtBBsOEWqy7sCbl0kjlJO4VcgvXsBbU7KwVOW+KX16uOqs6DppYQhjjJ+CEgFCehpRqz/c7C4EA/UJGQr2TOuz3bjO28nUw/BpQA0WYaD/dxanbilePVba5TZLH6SR3Jjyvwt1k2rW+/iwz8FNXhxYccLMYDutBTi7KdEMfcAZfSGgYfKnm8LqdMaYP2PU7Onuk4ec8ohed8Qp/io8e2IC7wm2bPZ5+3iL2YEOURW2ZGq3Zfz20zqEVCs4hoZFKG/IDykbwHAyeODSv1PuAfLAH6BGC5p9IrQnuJy+PVUQXQtZ/pjml+THgSPDVKv2RGZL2BubJ4qXqAbX9GlLdBrTQv0iDUS4r/XPeZCDpmh8rle4C+b/uPuLUHjHgxRLf2qibgsm2s2C7XLZuELjBrC+T31eTH89KjQ8aBASuA+wOC49isdHTBw0/CMcScNcK9RrAxK+qb2YVJG6BOk+BvWlaAoVs8VFPK28Da4O7iHIU+rMJ6Mif97srfB1pGW/bMZrNYATMsmSFu+BYlOEdUjQZNPKGh+akdYpzZnXDy3fJV5zwD/My5zrWDRwXYSb5SN4yKSvBAOgzYB277SJG1V3UTcIDvSLw6xL/PQz3LHLW1Ni1TJrqJVmhPMSHjlffUBLgbLBbf74fC+hlYgWIsiqvmVTQoZXKBOS23vlmxqrdcpt0B7/kGl2yJzLxyiFFbvavIahj17Dm/lk0/v700lfAJaj5dtD3pNUy5w+j2GO7OCZbqicFteBu7yBVubZ8dc5VrCi6Oqu/y2DEcJKNVNCe8Dt9PzpxLGowcUMBg5ay0Ro3M6UBazI9zymIX4YPW/qBoDYmdQNijKsa1mdOxUILxXogu4F8u83OPKu2WamnQp5GU6pvGMTy5pfWb2rHL+rSr/PoNlulVOGFwdJDKA/WSON9fxlJpsdj0J1xV+2CkpqzdI05ga7yWBusOSeg9KlMIEtr9FXKMl7iwp3I/raz+y3UGqrp/j2ajaVqq56TKOT8j07tfwDUQwOlb4nKiErbT9E36NUs3/szFJA7IzWKXO75qFSRwsjav0hFQcDmORhLy2ilJcvCCQhP2TRL/a/JhB6MOwk5hlMoKXdwKVGRTehEZ94juEepiF5uuXqNw6E8olwc1fzEP/ukH25xGcA4NNysLfuuJW1RTntgtxvBtd2/CFuhMYTg2tloxcSOf1xv8aOCR6lctTPrflVXRJldo4xhkTI7dCtg7MHdehiFI0RpUPQbUFrS2yuivr/xz6SQ+QyiFmNqhZjRhz4JQl5z2NC215s+YcGO3sL+Fr6uRZbMblZSt+AzUDbY+1w1TP5cKf0NzKp20/OK9TwP0mJ79VB0At4swD4JVb4NNDBaV6bN3R1NI1wH4foNboAyTNOFwDaM3lhAZ452d2WxGLyPjb0FkdJJ4lXAUJp1Aru1rwL9xnBvl5a/D+QTGe/jFth4H5I1y8SEaAz7gOAzGmlrVWjkoF8zRfx7ier7qeRMkoprAYyihx8Nu20qsYl6AqDL4XpOgaeTnMUaPYunMDBobR+u6lqLc1aUBAArxFXS8EATO2aJwHcb04Mn5R1B2aVbgix94KOzPIuY99eHfu4LmPG3RuLt+NHcaDU9ShDj6sei61LFxHyKchEGUp1nkdf5++bi3JJpmJg5wh/bVmPfoWTQcz3IjYAuLsC3vfyw6yM2Ji0ek99pBjwAYDJajQ8aBAWeA+wOao5MjclHsSwsTGWMmxcMALLL026eyv5r5eqAC0WMHD7Qx/CDwxsHa4Ropki0GVJ+fKFazhTrR06TuKbEmNeXv0LcN4DWBqF1cbuIcYvxjCav7hLzUEv/Q8gGnl8Y3tMjOuysa/Y9pPHCtMy2byeRrhPjreBOneUTS5GMx6pgO19XIX2mRvv1XEkBLY1TY0RTYbw0hxqydOOQAnSwc1mgAOG2w7XgLXFwrCfOi9UTvbnIkYAwByn6xUc5sjGf/YN6XBXzbCqy1XT/kUbVf1/7ouoP1UNpsyl8HfpQC/IsUObPjLcMUk5wNWG7Oc+NWSa2XFRVqJPpBd/WXSeN9KRyQmsdbqBWNWV5x6jkEh20VXKOS+yJBEPqfXuHADyJqB7iJxZ2KgYJxgGB44mEYgJgKnG+8ZLIHYbqP0S48tV+/loVuNqFlIj8uLqFNIjjV6gnd0OC8GKpkY8AClG+m5dB4HrH2wD+OAjf69babG4dhOv7ZjbqqwbBOENjDHpgAs0CeyXIJMXZZcYv4OeDJkHcv4Kk8pfkGtZTfXlbc6TYXGYLtm/VOt3jtASw/0bP4ISZo7NbZlZ6h6J+/T3meZSHvImaTy4pHRJLXg/RkrNsmFoJAS890vSqA9/ewB0prJc6fKUYgJEqD/IU+y7XGryk6dwCP34CNCUgCFSQHnWcoGAJXsn2EyrwA1Oj9WKlwE/ZgZkzXauOOcKPvbWM3nuhZ8YQ3VnDnIZI5+do+1dU9Yq3sSJQciNgVknAJk5X1K36giaZghIOPtUVftsSU69hImSt8j5ixwB/adWAC/RArZg9f7Li4rf0FtIENv2gj5xOsySxCxV9mzE6dnspvI6pgmDwnMcEBh/BifLmKYWRNnCYxi7O18Hdmr9ye1UgtXpFNhqr5NF7U7WtdZpMLP0uloU12Se0ChKAstM4tn+cO0uGhg1ISluKK5FeZ9+wBpHVeh6UGWp+mlJp6/alEBUYjwFMLWIVEZEwbwoOO2NsnATVyTApZ5nq8trsxjM9FxL4JM5jNuZtLwHovtttNcIsaq2XJZZm4dMM0v6C/hDCWVMY3Dy2d2gdVHa6Z1MGaT57z2CudJBufTFE3R0XBUFqn0lYcJAPnxinop44odWMu0u/lo9JwMnvHuDOBIYbq8gV4hzs1ISpAJ6hCmCs+ozlCRorz9Y6QJePMz4Eo7zfkYhyyDHpb/5pprN10MjW2ZF8jn2S9Jn7xNRwbZGMRF4grsg9MCyge3OwpDhk+LrwMyezQGSDZbWo0TXvIFM1I85KjQ8aBAaSA+wOasghuK9MoToQ+GwcEylR4VOUdFW2eVmYLb60uhhOLrCaCJq3HyOFzNVBwiUYjY2GCOX1UYnKhwuTOoqhs9LtDQN6zO3c2KEs1yAsp0TzphU0zJLe67pmvdzNQOXvCyYDa5kxiw5RFEtzFXbnsOmqnlGw5GC9GrySvrdXap4FtlgBe/TfitXv48ksSGpxbqq08+o1lmCWKhyp8UNswqMA6pnjb7G2FOaKbSkTdn3vR6nRJHJXl92HXnzgudJx6bKHRg1mHO0dRl07eCrKyQWzmEzcmiCOUnJJwKEBDUpXKBMGinhsZmvHigLBv9+bDvXDK8Unb9rzOp7Npt+p9uKHj6v3jAbknkkIIa97xFa94QtQ3CxRRryvbUiadcbqmDWzotGtKwPC9qVCmO3N7cFJEbOYPteDiVfv3pWQpEFrjmpqOifuQgAzcSwNM3YXHIa25em3Lu2zMJzCV9MH5FoYekf3IUvMkVVF0Xk/bekpGRSEFyVQUq1jsLxJTNmwuXfXktX9on6EWsRUiakLozIlxF2kmg+lBsIx0VF+NuS8FrlPGW9e6eRUleCLNoAViRi1NNmS+GSSAMjsdLYACMuxM5crJFOuf0rynG21VsAMAoqRFDOAY0vfBau1xjgXms5Ypw54hDiJpNQ0hCeThqtYtaKbs8uDuVLv2XhECwbXlwuV6ISuKcu40kzlQzlAonATL/GpzkGRb3vr8ViLKLh1Z7wZF3E3z/YvfTLZy4IomfwauXfqnkuwZqnLROwFcT7P27Aby69GXNAr6d65JQop4R9/N8hjdXrn8SwF9O6VbRGytLo9ILKfob58hm4qXH/Ojx09Vfsb09tTJ1f8S6bM2PMCblH2ukgJ6ZbzCtuAmXr6gdXaZmjmgn7R7HbRS+BrzJgu6ls9BJL7hTjLKAsvIJ70Eye8yJqvEvThAxs3nJGTJHDGK/pgv+kQI5wIr99xx/FAWWguf/vfAsWODQeX21zk/I8rE4OX1BmxbXMuP1OwsOGlomxD+Uvj7inCainjQYpvLq6PdojOqJzWBLB5yezynO2cqi1kfpMcpvMnR8lXXm7RuvLnsDjRZ3FhX2FKHoW9bqDFN9moDNsUNJvOmRSkUcu9Bm3HzQj1dJSuX/dEsP9sqabH6MUNrtdv4rnsBYGcAg4OKacWP0C+MN6XU8vGGOj0M80m2qL3umobJRsetQJNiSw9Fl+uY5qlHE0wX1WTqvKHHABQHRiAVxM/7bS0c6QwG6YJSRDJrLaEMzR7u90mZc9H0XbxC8ugIn3ajQ8aBAeCA+wPtD651EWl3m7FbJdHUucna005umCyFCXvugtYKXJ62fEE0/2el56Q5SCQURAtSUKlVUXPUxVd8kKjbx5b3yqac3MkFtNQyZ54GSTYX8bpREPJ3+81AQqvXhaaO9hGmkzPhKyVpzynberlfBvWVY2Z2CSqXGS0xwOG1jL0pGS6XUlJ0J5FOoRZuYJJ1wd5aVcbDavP6hDlAhTzsqfCOnKS/D+CwhBh1EcqaZ2krsOFOTr9vtlrDee3rJfXdwzWX76iYc6O83Iuz9+BPUFrR2LyywEMS7zcJ77Z3wNe+8kBxkLe+PvLo2x8lfWeJEvd2DIy1dHNEthgdWtIq5l739OqtPyQZwxjX9cXCLId8dWzqXp7FH3wvCOO4fuXvq+N6ODmDFxFlD+6vK6xF1vDJYHeEMKU7zgKfRWKru/LTKFy09IVvNM/dulzL3oje81Xpib+fUu8oFYGWnCF5E+h5a1ph2VyQpJJh2yW2t+6xKbcSHO7dnwpkid8v6X0RABjsB/nrP9sPGecAz68cYjKLPECKeoON/n2IC2D9IL+UkOzcLOyk/8NXQUfzRA7yJEl1btg9VLx2GYAzdD503PTqbiDSxT9sys9TEagzW2bvqEIlrORz7P1K0f0fabGJBEJ16Ugvaetg+O8mkMQOoTnuMZ9aE12ajP4kwa0K2rJoyBNGeg3ImTr+uzHpsQMjxAkmvL+gGQUx0NtOzUMbZVVFpqZm+I4PKrlIMSKlhmlrnrV9Kn9+PapQ+vMgF5ZKESAGcKJ8AEmXRI73ZjhHgLRN2i9JQIkwqMCcnPWnSxOMATSTUsJP53PNiowN3QA+nKvlHJeavjZP/T6LiU9g8VuUnCSwQ8pknW37rR7XUC9ZX9cHmFrNq7ZwgQEw7tyMEpl+KIu34jnrdCWT51JKPQ4siDnOBLCN+0FuLQjQ8Gb/q9GJ2zYtf61ZJakTHPWIMhFCTdTUaxQf9id8eRiRxh7bIfRYnPJ8Od7V7bfv4B/Lqdn8hqueVNVwywwe5oOaVpxodoNBhYNU0vmVjAUAT5Tsp/mlf942VFWnwemKh1RcMm5Tgf47xpsanTtvOIFhNfh7j8kjPmprx7FCRvDDawrpePdeGJITqe6+CSWpTSTkyV7grl8j9VQplAGHTgs7sm/5c7w8ak6lnkKe3xt6QQ9u3O8YlojqJfNQvbB8ouVtNhWN2t3ULWgHHy4o8aGEVYKenPHgv4HEZDaAIiyJ3LNFW6A+lJQYZCy8yYgdnQmyCxh/wLJACo3QTy9WDBIrpqQ1gT2jQ8aBAhyA+wOFqulmDPCnzzSg+paPfzfwIsQDdujiuTrcpHxgB8VPypt3HV3Y/Cfx1som7q0XnuI2HYwASyPC2NodRsqD2Jcg1l/a+K5sJfXTp59Vz4hYGEY28Z6PL91YO8Uk9JA/ppLcuuv+wvm8NsMqVd7R2iu+Gpf0qa0GzJnuW2POQyWU/bDU2D5WNswlIYHHKhkhAOCJjkQeL7ZsZfP0wFClGKUSXuiorDgD0sh43WZ1dFloF+BqjEvjF4ef+isPcaHshZTzRJm8mEye/FC4bQl9pU5xeuZdIsDnOixGX5JcY0TAbM7Vwe9rYneGxAvGP17W7MdwDeOHWaPwZirGm1ln+54Ea7MiTge8HvDChtGa8eKAAgoXT/hXfw0wVErn9puv+/8EszW+a6lpaF+tZqGCTc3h9wnyeAG6IPQHfHr9O7P+0ILj5fJWtiUy+Dvs0g6P08aOr9utyDo+bibmic7pxSivBUWgjr0j9K56FhmJQKh8QLL9Nojls9JGUJW5xhi7uSPNuqULbElPoht7PzKQKCPgRkeGx0wTcXxMO11+TeMUIa268+h1SLI7vudxtjSiKNkW0ITgBZiLeJM0glu4xHDETgGFxABHXxi0fyLoaGP89Nnk4KCR+SN6TBGnaDFPDjW6nZlQgct49mdqzL9gEeSx2I/+sqcXTj8cgpw/HbGnAs6JSkr6/YOb5pOtYrF93ztV2EFBdEGdpN6i9jJB38I+3K1Q5/9Rnc84eOAbhrRs5qyr0ubEh0YUNGphS8q0O+u5ajz9JFUFfvFLzlntL3wwvX9fI6/FAifB4Oy6RlpHc5XcdYf1rxuZ7PmfqnSS8gWJPKvWwLwrkl0RwPjsWlrQl0wHUpOfU2pbpnQvieh0e1aippHHsyypFFNcRYNJ9Smc9d49IDUCsRFog/3BuSspyVcJ66Oae26QJ3KcXgfk/YWblFkqb7Ae1cpkoOk5HR1E13vWynQiSx7As18ivppl8tYP+7Squ4Ahws71bYhmw4MzYmLJ6SXuLCJnGvBA1X7+bwjc22+Yl2EuweD3avW/23CCeSXz2GwM/xfQwIBdU6wE93vhwH8bBwfEFA1jNxfWrUkPMIi13ABxQ4vNzPZFmpKGcHVsLR4S6Mq0Lwsxp/VhXyoJ43dH3K86rRBLBBrmiG48OsIPGjmhSg63OCMCDurF101t78xdkDD1xAmj3XBLgYlqg9hQr2oXwyi1gBmINMBIALahEIYCug02o8dn9MOnYQXs+l+E2u4HwrsoQuPODHR/BqfVCRB8MdBRBHajQ8aBAliA+wMkyngBrV63xHOj122tppDZ1nD1HgBkvjZaZ7NS+iErLa2bZaYZAGCct/4HFF+hkozlXXPaCLd6DYRaYFXKgi5OERqnREhhmpFwsbTwV71cFXSrl4kbILXH8jJog9z3/C11/9rl+jax+h575OycuXnfUZX3PIzjBmNPF2P+aVrSAl0pxF+g4fZ6AjMUlcAD185JtlIaZibyhG6fWa1a2Et4mhzeqH5qUT8zT6UFFH7jpAF/i8VetPKmqkcWjLZtCxA72v0rM3Y64ZcbFrW+yRNi+sQh0kcxRAnJaxpf61ZyVrpoj8PfQnPcsYACD35Ky5AbPO06rbPpcXVIi3L9udcFEUZMGl6O/FZhpSmvjFkiElYkUR2H8KINSt6CGidjvTe0RPIK57XrT/goNS6C8M/JXMR+VdM5W5wxGULpJXcE0IVY/4ujUk6yA0offo0N73Kw6Jhm2Z9zDzXfXGVK8+lPMzu8TsbkMmY5rkesiJ4ka+OUALmDiNlyy4yEo2wi3UGDypWFbDCaI/4hzVsQoXyYrH/j2hgMwKoC8WOYS305RmFDu3M5vT/RJOK0wysKozle8lyi9ex3IRXieZlkB2e6XB2EMSA0pW22PmKtIPdjnWrp8GxUOUN/Lcub2N3psR8uDARrT19vzybVcjtYyIdnlikNCuPD0ddDv5XK1Ve5CUUoHFNzDg5JwcMOVC0dAp6ym4M03qm+dmJRx8F29EWlYgotr21qWPgYXDutkhLPCe8hbTvW/FXKAleytcQl5QYiBHWmJrOzZnE3vGrM3boNBq+4eUFTWMiKjTalEO9txxqbEZOej/Vo7RYz7o1NLC1xdz63s9IyvMXL1aSpO16whaXzzbxX4YBAgBLWpU8dlWVMVWdJMuF0AWCSuomwnC1DzY0XTkaSO5CMqpRyiIhKYNnCYdPqemG6Z3dcfdwmWZq+ryGun99Mohr7SU2k3XntG0R7VG64t45i1cZCRDws+/4i3EyRzBPOn7c7W54BsHswdQ/Z9mf7v54XI1p/UT9KSbINcCyMGT+uhaJI/El0sBy9PHcLVUJ09EdnuOgmlNGXe1eQ7Pd1rK5HxARA6QdkG7dZeKxFtbailJ9GjoJbTh9Eu3X2yuLyJDwuV/Kaivpi1BhNGICMNTNP07YsYKz7/ppfDRvRwjSF52Ush4bEMyM1CLrfJcaA502WF7zsCDluyf1Rprj5mXz9Vo0NRCXeHt1lOCBGBKAkQKgxsv55iElXx613Ywd0mpqPemqi66lVqIXarPnaBUWJ1qL6nzCjRBCBApOA+4P8Kf4NfmCuIxY39sjg2ISdJbPfaTnE0OOX92bwK23cpK+jxMnKGiWM2BKwXU5gYK2v7Xy6OPW2ns6gjcSnq3loZ7aBHdJEIkhMUYzwYgc1uwaQSZhjoZWTJpOQxPxYA3VPM+ftLbXKiocps2qtLwKy/Oda1iDy4D3mrGEvyG92e64vScHqQlAMY/wiUQgY4nzgvex90OPKyaiUxJihrYWVtCYQeLLazS+4S1z+wTkzlnjI/ynNXLz142afZEy7uHZUbh8n07W8gBFvjgagqpVn7MF2Ws03urDAeyR4yvfRd8lrMk2eFhAU7dX6Z0YLID6sIp23vxhMPeVFExjI+7MJg7/nVwj+h+Y2AJ96zC5dh0tmxMxnQgt4iZX47tiHwOglrNqpeFYvuediLdWWhGs78hOzqV4y78YnjtR4S68hSrd/FgsSPa7BjGo1FX9XyDQ7fSx4P2/J+ZvxwVALUcgHsKTb75yudG/16G9+XF8Sdq6MlUBu6Pq9o7rUM40n2uBtMrQquLUZsHjKsWXv3GIjBmzlmd7J62Cn28O2RDsNjt1N/ggjUS9b7Foxf43GnlRekyPlJ5b5ThbsTJLYNYu8vFQSqdnwmeMXPsAlvMVo0lX/jJf/RwNWfpjfhSLA2nKbvjUd83f+QLPV9WjaE82vYWEPxXexWivypkL2uRLrIQE2NJZSJhL8rXOP9XfKWzLrbWs2ynl8FJY0OlofSZF7dv4fT10JX/wO2UFn7JAEE8xr3Lh3bkHELwHDH22w/Qt/W7JKqEOMQzUPP2vpHBGSJ2Okc0a28t3BElAznEy4sPlqY4zjxWcz4p0FSVbZzSzyHPc/l448nyEBNijFSgwxOI3Iu0BrGhnUr9qvSdvfFghYzuVR+s5y7gu8BxV2khjISizXJ74RN0/zfWBOxxoQs+Hd/s2CmOxjQKV3PL8P3wQPEvwMuv7/y/OG9YqbnLQFu2G/qOKXkpnDpVPG3atfVwU+HzhbR2vRkshJ4p45cI6hbyctjO2A6q55hO9Q9enno4Rm7CDutwnjgj8vQm0Vlf2rJe06oWYTDcvXWTUuRb5oblg2/qm8UEPYz2/xcQf4CzdLCT9w8/rdRuRx530VogH4IfKbMyqUoWFWshDr10QkiCkH5QxL15W6X1IZiJRTvinqi1j9NKOXJjnD92IBgk7dq9lv2qJ7MigvCjKTLWjUkDpjMYvyIPFs+6df4vyT/Hv3tF55S0sbP0UOALSUExR5E08FdCyeoIn5m71imOgd1DLRp6zTGQeErO/X0Y55caGn87ti8EDxgs1Y3RLz4NTPqjJmyrMAGyQyJoqkmIMuMrpPNc+EE8cc+YvAf+xj94HOtQqJP9I8oU1xspc1Wox8mDJeFlrjWaNDoYECz4D7g/4N/g2Wra1D9auIC4LanYaD3cBTg2xFPwy++tFTqyhEcAaEhocbRY45X6c8WSdJp8W3a6qKdVsnstFfsJNDIX5CMex1OjxE7ay1DG/gp8Nka+Wi59jKZhQ7Cd7oFAXELjuknaWWEjUVgSpILtprRyFQ8M4L/GOb785inbMrYgCAdftCToEsQJ5SXZlMbk/yIH4Ig/gjdW82NDWqIeaHJWURzodMZftp+arc1JOydSE5meyQOm/QzGSlC5cw91RZbRwtK6dtM/q0Hm0A0usZIAEioIWw49eBgvpisKwSF30ncLIYy2Yr4t9rWG1KZpD+t4vJJUJrO+W7VIZg2bqCApDXnWNV0YB05yaCxn6SY00JDKwnizkZHO401/4RD5XUYhQB/ti8c0P6V9hblJ9HCza5vg1TCFg/aKeoCMMi920O3OWVVSdddJdxRPag6C9cDjtfPF3jsNGg2gVZIpIWAU8qIFpTtg4EHSxF2dZd/go6zZQ/4vCuXFybUHrGk9RpkVwuA/jCPyL7TYI5WQNSUg1T2AFAO4TOUQ5jBWk8aQ1KBpyAbw/5f+QmbcVmpxxqCvlRhfyQoOqfBjzrUTvWQg4EBkb1MPDVuXuGFj5IkpjuoTmfkqHNdlsAYZUOWMWK3tX6I5b28FMGV6xYO5ngDG/QahsxE8lVCfpcHTCDO8NuT3OdeDixK+HMfiikTG3/RFh+T7laFTvgQuXDRmNXjAp7uxeFmKM13dyuQI54US+SEm94HFIfj9QNnbdoJMkdmbd31uFJrFqJFq7fF5NYUPMV7q6D5UEU4AWZyFH+IqIHauJzZe88kTU/S3R6QtLBlMR02XPhW1hnRPeme/5FENFwwhdp2wMtIGtu8Zr0sjPEbbpjHWUqkxsHNzW+beg7i+f/1D+iB8C9gr7KpcZN8YvVPf9rb8P8jtsYZRvG9kiVE6v6+w8qFe1/XZnIiT1T5HJrFO3QS/BAR9lvZn8xtv4cgKWy3Y17Mu1CjFrGYzx0RIBDdDg/ImZYVSk9dsPEKk3MI2xcd3gPl2P8GvpV7FNPLRIDKQwCaqLKqTVKZjj05UkTQ4CKqryLNKMcuZwUWsMZ0CYwTh0VPewbC3fo0W5ZkSVGgayNrHaqwT1enJmu6eOb7YpDKnzmWFNHDg5M2ulKGc7hG8PM3fVRqJnv4C1BdCfMkm5gyulhzY7lDCtzZUTnB2jtwLlzMhWWOLreGnPvllknTwNbvSEvo0OtgQMLgPuD/Q3+DSNYktDOo7gS4aap2DTJgfmT6ifqyeYLnvvjeryBvG0LS/IJ2txUJD7yZesObootXr3rkR2X26bbiyQzLwrjAeCu0Qmm+JsaszLjy/59+jjrHw9o6Fo04W2tzB2I+/K7NowV9hBM1xD3nv2g41JsaFoBCR7/squ4RhlVv7dRPqeZ9YTStv90UYbTSuefshnHteHAoU6FxAoZhKKbWa0clyl1iwd/0rUswjU4gdKyCG+dnulZ++v21/XYQr6lcYMGSLOhEvYejJycJtU3irl+ACwLGzaCYFzQHEmge43GwCVbWvB50c1VkwacvLpR5uPdXdssGDcvi+Sgt6Z21WwJXQX5IHGTQlfcFgu5xWFajWFmvJ3WImyk5tuNBEPVNxroxNgUIzVOD0zE+n86StiR86nRiOHPEjSpwY0WQFrcSWmDMRmiTbcNMnh5CFjnDQO2aWGe9ec8bqleqqCcAFRobYqYr2sSA9bL8fjZEXnb4ejltjSU9Ahe9cWGarwtx0taBz5XEvviIeFbJ3fg8rzMQIrWYFQDVUkuQMClwKjuE+dE7hDuWSb67qxb+QBGw5p8o+0AHPfvuDiW1yI7rpg1apPrwLmDorvVWiCYd1YY0aod/AM5PQTHwNwQ1qGk0YxXrMrIJ4HTy5gJr+OJKokeZf0DbDzPSerxPiTuYHPFukQkiCTZSL9V/0aG02Oxz3FNgUWdBR3YWzcFv9BwbFCKaTpG+PCC+BehiYw2iRhGBQPZ4NDUsi6BGrqOZxnFC/qUIDvINuPbHpKS/9eOwDXEVuf23YSB2Zu0cwWKwYcOvt/G8SFAhvmuHKSpo3wzaDyXWmwvREnJTa+Oi3pPW+LFzzw4qhMJbEoL3xLZQVgbT+2L8VPVC1iWBxm9q9wamfCH93xMY/3LtjRTejtm9U0Qdo2qNHkWy88MdjengS8IL2+e5uackpJ3ttzrDmDd+vilgkOeUCRiCc52ZUjHSkTmYo24medqdivkiddIjGDfwtBN4UmIuqMsDwLPDDF1ansM2Lr14wG3UfVXr3e7X9PtvzpdBSlV0FihAfvE3n1j39w2u9NaptLehs+IrBTyv8TmHjjVMRR6YBm46TSKTfH3lb56vUB/hPigHkryAFB3yHlEIkppIAf+zDj++5nxL2Z1pO5evygGt/xjCvTjZAvgfjki+fabIDYKJhE4R5Yy2SoIV+Z9U5vaZ9zUsJK0En4z+fI3Mlo9XGlwJ6C1+okygM/lpkCjQ8aBA0eA+wOFHK4gvcqPrTdYRNBsRFowVYVcomR9Om4fu2U97ahuOSKd9OHRCMYSX8IP1ae7pkg+3ESfGAweL8nDjTYq7RVa9uaj2CkogmYIKbcjIQvxYDHs8tBWfor9b+Q4KjlDG/1UrMyT9mlLraoZnfkRjFow0Gp4HHOoKqLND8Nz0n+dv75SNcPNnGVsrqG/u1fuDxZXEw3Z3yyQs0dTv68z1+nThNvZpHtaYk87XPpKGCkVoZACqDXZIdesR/kKxa1D3KlegIx8kel3O8jzEJbL/dRtwn3pangqa/1H3slq1zMMVBqbYhOprOijiozZFTaQHRiy1mgcKypSvyNXvQlaY5Yglm/3cNHtEDljBNyCv+M8EIYJysZDaL1eGtiTd5vgqt0oGcBZvIPBMXZi0DF2EeisP6aQit9zn5c1HnM3agxKQGObB+skp9+Fb8LL1BB1Yu9WTN2G71fYp6f6VecpMlzgWh7hKPd/N8lDARAGg+MOiyj9YruaghWhANTDhuCF8poamUzVz7ZsyMBQiYGW7eXdwCacyOnsgtRepJFwROBn4asTOfSx7GtrUZuOCRN/Kt+iDyiujEVvFeNNQVuHwdnlNP4dR2ZUkYbAwrEQ0YjptvN9tSWtlty6QbhIZ4IuAQjyi2bDN3BfrmKVpLs41i7AGnPpi/pieKhxInmo4cZfXcKY3i9tUZVzcQm8jxamtPRpU6CmftN3L56mhi/fw8zOiHeNAtalbKKSJa+zSdgQc9/Az5cnxIrHX+cX/kO4D7Mx56eSybxR1pEuyQN+H7YrlXzgGzNGgKVWynB82ReGUbQGItcNeuT0qauwQb4SeQKcpOYQcVcTYgd4W67m6InxwPWAnYLll+y/j5l577syoX8rBBqhLq68IBnFX5AHbavs1uMzDLyHp8/jNfunrZCPbEHzqWO9z8wWGkg9cMbRzGZ7r6zdsj9kG37s4MUBH+HDen6951mRnLAGt6hcj/SE79enl1G3IrAgkZNXoewYN/DvsNG8rpRNFlaiETO3ejTQT1HhADxKgC27b4KJ0JQK/uf7po0ZUCwmt1xX9+cfTWinYkgiyjDuOV9AYTFjNjcsjjacw0MN0v0VcsCC2R3Hrqpbi9HXliFNo89jFfeFb5Rrk9jTgNDolFLA3nc/vKkUSk92Dyenn4zGDRDNlxQkEonqcdL1jHLhM3VBAsUTIx4qCZBYEAKjSOYdGFh1iHafSkJBjFj6beJGz5mKXrhI5z76drKqbLphBjQQfz1uWKXmyAGXpgMjmQKfIdIeetmjQ9iBA4OA+4P/Ef8Sxlf54CoifYqajuvORAD2wBcGtmAWHcTK1f4GYfVqVB92Ca94Afixfd30lUw0tLZnCFqGqq5g+zZ7vkuz95IEtm/S3zISs7DTEEK7a1+ueBrfp7ShHKJ5np9N6zmlbE6j5MGVGGhaY5o23r79Sbqk87zk2GyuIhVU7vCfGWK7wXoWXWCJbD/nyR3rVRG1ncpGxT0mFZXG66akfkdGFMYvG4GToaA75HYabc8qkLtlrwY0JK0KCgCM2x6uIOC3HY5L8MOEsny6oYxAsdCB28IS5JVW26CXWlffpreAXsizpMgbgSbGZg0a1zTcVh2BBvwEko8OjnsjTEk0jsEtt7qmYQFbK6ElMcs6+lewvbZg8KX4+iHp3pPWGNWDl4z1IZJtWo8ElVKFPf0bDVdPsmP6CZejMwqhIrWsQG4xMnl2laKtytLBOKRNzZ+vK0kirOUA3oJXdU8aDlH36ud7bubxkccFWeTLQS2Yn1XsLrxyvJwN53OJzliylZixMInhW+GCsxN1aJ+VPzj2RxIv5krXMubNaLeclqQkL/28obcyD77epLac9oSkA/h0q4hhe1cLRGYP/M5+bFcD1PYAw9MevW8Vag0OXAnPzm66Z2MSCHMaNF3JfRea+rPm5SK2fEavhiZnRFhcnK0gG68ggDgT7zJwEKI1qesp73hDtzV0W4ah9G9VochDLuvrEabZUmEZxBf+hy0iRMkGE4kKIOMl3JONpXPKdL176WsQ0BLQCyaFcmVN5rpEyyCIH5kI+0T/lZ5kPf/UQVwMxuj6V/l+0NOEb3eddCKKE7kwq/D+2DkPZU60u89FZdUDUgAbtxURvBB7exePG28luq8ZvaI1l1xjInoYaB4XOt3GEvsTA07Md/Zq9fCR+9i9RNWbitXNNPpWH+btqXCUfY2zrqIgQjvv0V4jRcysMT6WvLCR7jE9/r47E95TCC8gWvcq4nUcPuow/IjVYJ9I0rJ1MB/+qSeUJZofIOHXv1L0N2zR6VjNpghQ4DpcNr0cEXLesIphAKzjmQPOEqalWsyZ6CyPg4gdG8zug6iVLrKndOJFk7HRcnk04laW/JF2+oWWL65gH5HJRZcHJYc3ddLrjK3hGWpTqDIX70AunP/rNcJrC7mCV25Yhe3+TdQz9lfulE7JD2pxsekIyazqicF9UhzK7FjJAZfaZoqeZ/5nql56zitBZxhTFBeA7qMrHCbzjIUN/SOf12h2vxi+kKfAR60J8l+c824xAZDk88RYz5TiJYCWC2qXcPP9Wj1zNspR4iwdTmDyxqi6ucS6TJ2iw2GjQ+iBA7+A+4P+FP0UxH4a4dtBAAsMN9VbrgIhXLZ3i3+HX/1DF8LCrzTf1AuWBgxbLV4amzvTz1pd6GJgIeyIDGJ+a5P6id1G+710QjO5GM3VQb2MoMwJR1nvej6RBs+o+3Q0GoCNAbGOK89ICgCROe20Crj7OPW+/leWU4INAM7/vhbRMIF27PczInZViZCnWx1ETwr/4Wg7I+aKTjFZMn5hasbgkNrHoKm9M45WUATgAheAsxfKJa5P9gC2yYjwQMGqx7L2iDoiCvSt0eAZ7/i6U3LLjS8/cyYgOoFwN02j/ReDZg7mE7cm62M6NO7Gj6ifIgADmK+h9G3gZuSA1RZ3RMc56P/uPfHcsq/7/38VemlfDY1r1IO9GYfqqKi+8IuyMpSK7WH3bZIP5/oNMdsMuIcUpc0BuvBfsldHCca0O7QDin5T7thaIXhk8uS5ksi4jxJ+8bNTYMxSqXJyvRXtQa8/jSUYg91WzScL3WhQi95UScFGvBU8JRcPn1ZQLfWSd44equS6QtWIMHO8a9/zlUJmTKx5fVNcft9AUukPR+0AhaXnw8zMBezEoF1Qm8KS5sGBZHMs8oX9G3nRGOk5YILl2049bIgSDoQMUgTLaFbTIZYLR5vaVtnVPlh6pfJEqz1T5TzjBjHQ3MsGiSTpY0aDb2wmjkEnYtJVg5BvaUjCHBQLkmO6x/tv0myvFRY7V0WiEpVZDt7Rw7OSgy0UDtIRQrsrgiRoz8Szze5ifWcqN058Hc9YWgqtomp7rCKXhoPWgVbgTvFFEolDEJ3nzAV2XmvxKWbYTZZkrFucRDUdIAfEIf8t/rwsCTLzDTPYTnmqjeabGy19brhKgOXsVnEiX21XF6djjxzXCIYh3DJOdN6ohN5TPWkxyT2nUHxe5s/TYtGl5PACAyKfDufyYHtl0uMhRzSegTPNbYzW3lQlfpbx4HsZl5eQl1JmF5gvTddmE4PnU6Kt/Wcw0+lrmUZcUrSdb9uZ67uythAj885/EcRdXzlUMKdJKa8O2ysdMOxw2i8lPCKLqeGapN781EGK4mpSPMXjYuIftuYg2rcM7xm0WkFUEWhuXiKKLn5GUdkLpclhX96ZDV/YyWFkzkRTRoc1gh2EeKYh7jjYMTuxNUN1X8u3LrAw2Ahlw4I9pknpgOocU2qG6Rjd4NBtewAU3FpmpviflW28LKOBBqPDj4YfDzre7N3Xds/H9ms/pUMMrd/sdqZl+qS8tC3onSfRaPI/wiPOSMrbW5k7L7cDvb+xyISO6w78r6BzUBlxShDFHSqDXJhHJvUSJH+Gskg6iPYwccauomuBmacvH1t7J1qTj5tjo0PQgQP7gPuD/RH/EdGAa38XjvGOeXx+oTFjqzxZCob9DXzt9rdZxgmKCbodDTDtmcN5bvS8DtDWuch9AyLZQG3Wm/BIjluAJP3ScbfzU8X3Upn6Avv57rL59WHHH42mZsGRcY7tvuPj7pscBj5VCh3JqzwT7O0LQ+g7Efad3MFKHdWOVDcDWw02+0p6JytIalOA57B2f4VUc/px+AP+rAUsg7XATOlBQnJSw+IIm/wlas8JDf42/Y1uJ/mTdDZKUZ1XEq/BXT4knV+JX1mcDpIhljj3zH9NoMj+L56zVNmkAgQjcC7pHBNjC5zo2zrQTI5ZVUssbU9eF2Bhc//aw/lfCoSYgIMfgGo4j4gWyjuBqYDjMTfw54gsYmpEkrAi7UC9bQYRk+DVw1BzfaMA4yqhCvPttxZ9ciow0nP+2mP5jsPFM/akbSEW5kn7YNGoFV8L8bAHCSmH6T79xYB7d7hLobxlrkxiW1gX+yKKf52gjWCC1WadyVtdNgL4CwkEyUCT9QBL3RR8mYgAu7y3nhjNSjWmSTYs9PiweC7dBZs2PbtUvH+mfRaVy0/9qkrIG/xFI1Ean2/6qdzmhC4aPuWUnMeQEOWaP1KReck59Uk2GDdcMxjKPZieg8N9axYVATf1JeiRqlxhY0BvwT5bkxHUjii8eKvTlA6PC8ufAGWfdJYuZLYkf8Y+ckYeilntXq3FtOrKT9n3hCrpvWcdGuHbhoJx26Avk5nv3LoHy9SmR5cXmfTFpItfqztMNNRj4W4Tx7KM2fTBvIBOYWLK6IQYS8UtRQlTybxITwNJd2ogbyNZB7kBAeu5rddgGuxNtsHuLeuTAQ2ylZxKg2GJ+r62E4T+WF/VWIWAnVpcHhde0HYun5uclw0SO/qNuxTuLR9R/MTFJdYsiK6FStdSs/3dPMcMqhLJAcpLqS+jURiXXDqw7gvFPXQNVh0fSD8K3wnIb8g2VBoEVzkGsq0hfb7vmxxCZENnWK9/RT4HePZitL0gmMSSzASu2ZgpDNOUj4JhM1BlbUoyiYigciSVw8PnYDBEduC5GhgtY2CpzrsWdQhKy2cSzQUme3W1usgc9rHCT2BQ4FQHQRu7dtWm2kvzqiEbj/OVk2ZjmmBzKLzefOA5/sBd9vS+rpjFeDtUUemncvhjiTsqnqpdXncdwDNyGyFmvhRJFabC3QJhOFhy7860lG1Bnnmg6/e1mfPtUlh+Hj2DPetgU86fXEwPxVNL5OpD1BwdX8UQdIVN82SPJ7xzkBbi4/xV9/DdbAEIk+acuVDmmSoBUj+vltKd0yYvWaNELoEEN4D7g/wU/RLQb8omSSuMFYp3tfDTMKlE0vFocecinneoUpvUafOtdFY7ZoGQVZcdG5JwkO5n9S1ipygP92KQi2VIGP6pjRNQfoNpXX8C8RD/1loNL2QEGnNHiN/bOykwzSofEOvqoz8ghmha8wE3M51anFeZW6MZof02wG8bHe7CrW4eiNzCrj7elYVsx/DBQIpHIWG+dEzkKJP2+aKg+nwBxLxAUNtkhU0G+LgIJImLX4FS1AXu1QOiZPhMhwhP3UHOmXMiYPmLEAAhbfVdPpbinh5Aq+qOhxD2lBDk7bazZqDT2w+b7TxD52buHSiaPkMNkkb4FwA9rBbhmOLyzo4kohhnPKmbXxbiQuUKEXgsfkzcdweB42hZCdzwbZtm5w1BC1IBnUhBuZFuTdcX3qGBgQDy3KC1zEkCwAXlzkqivyey5edJ98nVK8FAmbKdF42bWNBv2tbZ4dx9eciTxL34O/MV+W4JB/h9reRUHcaYGZ6yOMxabVPPwseYKSkCK6LZ8rQF7QeyJTxMRGLJc/yteNXojhP73X5yTkeLZJ0zbTJVCRKebONyczvYFThP/xce5qYzmCfgWyHgKVCqmmNoMuh1owgcGVDzLJ5E27C4zBJOEz8g0p168cq6RMH66j01M2gYCWy6e8A2I/OwcTW3cm0b5fvMjCQt9csjHHjcQ/QDHwYpWsoMxrMHvcaP03ec2rEg09uXsJ0LbDMZbQPA/Meohp7l3mkJMUbn0E3/mmpsmJ0hjJ2KDiUof/XW7Sc+CRTujpkcOom3VuddtNJZyt9UYmm5ABZStWk+DdXbfKyEeX0VQqtAzT0uiVHerjRJGEuKqvseLvKBobkhsLX98MMUrnO36v1wcm5OSMrtRVUDi0QJG1fVFmeI+NIXsKsavxjlYfNxb/i3KC+phkt3U91DqtsVcdTUmVLVSRhlbClIGySBQ41RMpB9JaAp6ipBK5ci2cvOZi36IqM9F1ToujhAUGpErB67oVD2RiBiubFzibkO6X2uSnT85ffCHtmxFFA57YBUVsh920iq9z05rbbWkDXrAizAl7Nlv14Wq0T2UshC/2V+Qougb+CNtj8/Fo5VaSNjYUkNulbAKCW88VeeudNTq1rqedvKn5IcmwZG+45rY4rfruT6ErLE8KkcOHp7NmW1Bjz22pQPwBG2hqaY4mX4n1v8bFFc9mpuf3corhnWVLp1nvbZZNm/ZTyyjQLXuNxdONZ8ft2nl1HNLE9u1UI/u+05zm3ZcJBqtTApfr4HMcFn7sM3A6uWQ1X4yXdEuaSVcOLJQASy+c3GMtcEiUTYGXoSDKBb8fUvyw1Iff2jxmx9MXLNwOUAH9FgEPV73+vFvYK4pbl7aloXJXYULSnRRox+czOC3mSx3Fi5LPQMVEzdXTI250fSpPJB4Ontfr0XmSdbo0R0gQRzgPuD/jL8GtTw0zq+CNHDhq+zoza6nfMdf31DtPKpyUcJi0SFWFpUzxBctFMOAq1R8R538u9TsINBIOjzqRz8UmaMaARlXyjUaXSFcTknVaJLsAOEX5vq0pYXmtD4T7dAOdk3T9wPSWioQjWm61fRkgQcKcLCNljoaJUgclxibWKPPBQtqrcqnSOYojfpjcd1Q6oZrLsHr2Rqa8ycichrUniHqb01OGHyYJxpcxEP6vL34NmxVBArKAKs6/C5ob930GPw8OAPoMjHafhmgqwBSvwHKBIkztugsYTCsn9qEybY0WglrvqxMQ/p7ox03sXoLhExKvWX7sOIMR92r605yoBPQHVFxoond4MCmAjL/rLN4qbQgXXl2/ccgp5W8RGi7CC1kMQ2THVnTkiyASB9cUyPVKBjjfSb3uCOSbt+OoYBXBwBmnMFwBxDJC8l5YBzqjwD8aAFVcQaHF302uZEudIvDnchEdrNdYeD0BRMOqbL2p22adr21uVhez/nUvSsDwtdiOyaFyqa51aYhvEUKWD3SkVBoLIKq5M66cVuZ+z1jhA3s6UmbOrl02zkNrKSm0ek0L76UZOrkZj7fvBxExYgq0LEcF11iyEqu2XUwGB8ZpW6EcYoSSYJe+V4kkFEvRBNn7gevCGkhMAv4iAwY+0Pnm5LnZmVlhTFD5BaMbZVQREREYlgn2BcT0uk2lps2cIs5H1CsvuaHZnDxE9KeqH9OWWzIoraY1Bj3GwPYkxqy3zNMl8bfdBuAcHpAUQ86K3JL+XWDpQo+LITlINNuRK+qNTnskL3HK3JWXvm09jemSjiU/JZXKS8CHvRBE26RjIIq+9T7214Pvs2w1sIrYvLSJ4QEDh4Sb8h3OTiV/kgteK8ySNgWzrd0w8I91EruE37ouF+RtT0tgFtmMThuURFnfR6slo7WwqnsFoCFM6A9l0HRqopBd21obrBGFiyznqqUksWJ/aASqt+S+CMVCkdLkOl1eG+4J8F29F4qMAAfW1UTdAsb//djjMM6S0QB18IssnzATQAnvqzvgk6nf1t7OcL/tsigC031TsQWVosAfB+DsxNaKpSWPVmNlc66dUZgBhPfmlQ1ARXscfJ9bk7g3ZULf/Iq2xV5tPV1v8+qnOyY2qWAdXrdbi6w/+W+iekMz1h9mtn1x/qgq77RANLsrICNfmcTDUFFWPAMk2rqmhOzIUqaaRcUUujSkqxxVNiPJDjPivXrCxCyZHm90LfpI+BXWf3BC5MSGHG18E7ctC4gxBStUKy4jtbDJEj2++PdVX3low1Lc5K8f2CmGTDVCS5Rq1RKdgA3GjN0mcdWx7oqpuDctbv+dmXvd0XW733yl05D0ih+mbJYso6rYlEYXvBNuvFw54ARnKKt52FclBcoRxEaSpr3BOcwj8xOV41ICqYkuj+WeXjWxTHeokEMGdkQhmQOENBmQb56CvqCt9ZJMk89VnPCJZD4oy+6ZC9aPLVvN9gGGYenreEdEDnwiHMccpd2fo4AkXYT8LXo0PKgQSvgPuD/hD+EdF+NXIs5xqWznAtu0znLZXMiimpKHeNQnSeehgKN8fWm348zz3ac3EECrIG1+x9WU/ZB6ehJZEQ5cFgSOmWk+7WoXb2U56PGKtEOC1OXAxF/mmP7cneuB3nusjT4WswlhH9ex2Byrd6O46wHdukAqcn4a5U/kQx5jCKT24RZ8UGQ84qK9qCYtwWMdvaB+lWrvabqzE2rjar/zw4RdJoNKna/ETUnBPWDPlstd16q/qvtMeoNLv0dsGoANv2ZfozfUeUT6aQ9as9tDs2CKgUQ0jgpGhrS6MXPd1CLBtL3WtBiU+2NyNsw4Yz7WWMfEsD5sc2AQwwLztvJeB/xqHHKdNU6RVZgPA/aS7euv9prd8kUVrC3KQoOESMQQ+21akiDZVjETSY+5NHNhlkDRKz7IM5Ov1Qc/cxQMdXiMQqztB8eHlM6m6eVb+9F8qgUnO6jGowkdHtzM6Hdth2u+YfU/jDDIZZ5675m9uV1gCx4uLOcPOOpXuasVqmWScrJQTIYL2RGl+VpCEwuQeD5w1E3cDI4gcvzGHSJ0q5hzdA5jBTYJL3PsC0dFvmZnKiGABGXm2msU0l4odzkvuT0vu520X5cEX5+1fDkRuAeLD47MpsY48GdAtT4SZqr0hgqRRoMPcntCVNEqbPbqWhOd/JVQU1qnr4YiaepcSqCWsZIt+z2VMINLD4+DuAYgLxjF82h77RaxYhUZQgY321rE/ZXEr6J5HFu2Y8GNf45qgDTFXBfFJrWVV1YYOGkxeww77ynGzbmGbtl4p9CtueK9Q7n8E4PMR0QSj5w4fKe372LyKvzaubzMOASgG3wolb+muY1Kj9fN660EnJ6XQro2Xxps7RgK2Fn0tLp8jnCs9UYUsywrLdRTHUYS7HvIkVlSxQvZdXlTw90zJctjkdcMBQ6t7g935sb8m3NW0/zf5HLYt4gbUJoTusjtAqbDhUWeV+38UAs3FbpFdK5frhscLKAEJX7U+geYf2XHhm5Os/jbcG0u8ou558IOiS2XRjYiokdL6l9g0cYQsfFEZZpNnH6hyUOKeS1R0WY8LBSFCkcE+0g1MISM1j6JnqWeRRoE0zUmDyV2UMYl6psvWxY05Kz5JPc6hNkw2IV0qHSL9eiAVsjRwF/rtmbHaHz99ydEA7YU/P84SicteKLC0y489VfFdkmREq1TafguGB7+6B61C9HZsl9bWZhWDR+P0vWLc8K0NKVwtz2yoFaQGKIf0SPjKK3dED58KiPupdn/BN4F/PIjjpUSo4ePsFHSMnR6xuz6NDwYEE64D7g/wR/BDQgDWM3hCtJ2I6t4RhGo2PZsTD3rXLtn4666VdGhumlkY6qIhMNFTgg5xKOFwcwyauVYlo4ID068ttOxtbDRLfnsbcQq9leLq6O9+KSLCLrYH6NtuhpHV5lW4eN0a1JX06RMPijtVcuqhmYR+4kG8a3FhY8ikB/viOomywdaRISk2xGEiNLzFg2JbHtmnQRSrMSoRRvnyJBQCjzleQaONP9uN1hY8o1x3r0NCOAXi8kz/zUY0qkIU05/Btw6kf4C6OU8wPt8DJIUTeSAHdi4wedFAKOsbTONUR2MNQYgO6Uf+gbwNXIP9dl8L80cH6k9iKUN4cwtVi+3UfS5DRh+e/Ctpg5zs3sttu1KQX02iZzR0u7V4eNkozgbrb0tqwQsQEFKs5rZlsnjh2xDYZeGokuC+uYf8fcGAi2Y30JzRSz9HCLegwSjOoEmYpT1y7atmCcvUFe+Zmslhkt9blyA4WanTI64BWIVSXafCUpzP8e3N50ti80Ha3gyo9n6dcpRmzsDhLLqBWeWgliuvQx3o4U/sPRIl5VAFcLw8GW6V5ssK6nJ+M+/rxR+Mw1xF8QfzcFiGx5DGW8eMg4AlvFite/T5uf23eMA67C/+M/Yj9cu0NdxVUSSF9LNXQztu3/2ZDLEpNxbJQQdXxx7/dZiJdQLeQEYiFu8aW2YCz1gXy36jrC8nsVCgxnL+NELN/lEnNAJDbb0a6HPhPXuYL40iDSywkpxMYd6lB8mnppkHDQ4TtuAHO9aH1S4BIn4R5P4ISrY7colgQH64n1ibraDILmuF6uua8HfR/ijETf+XG3BCl0G6iCwEBr3QW3l1VFUHGLxLoyctm9NvsFVlUXg56eHyIysw14a4hi7svBvmCJJY+WLd/M7d1LaBgAYU4WJwi5bdCv9k1VMt+ZQ1vDuAvBmaKaG5QHSVsCnHT7GPdpbweCAEgW4a+l/MBOMX/0HvUnknNEyJtHrh9/XKHpNdjaaVct0aOVKeXb7zqrlfkZ69UZL9eZCGvyqyDrijCMp//KhIgkqIrnGw0zSy6zy8FtZHeSfs1YTWcr436vMMRIJrEQDqOL5GT+SUOEbU03KIDIZjH73fAjwPsENN/+H+Ftb4p/dTASKP0edxNi+rO8PAf81ICOK7mGydzPgjMxeLdn+nDrERLi2gJm9heJ/upzwHCvLMQeX2q6uGMBI4gw3XWj0VN+XTWzpV449Zmgy2aBmHfTSsl735w61fA90Rg/GJy61maocyPzusgliZEOEqxedGoVZejQ9OBBSeA+4P9E/wNP0VtY05tF7c3W8/txBS/5D7Rp507zBvE2Jng68kfTM85SzrmnDPLDfSsRrKXlU80MymddAnWJC0HZ+51go/t8B35Smuk3YvCiD67DAaT0egnw1SXvtd6RzRu3xkCQQ2nrVllXrTCJ65e22n4ACaJuayxz8WZnchuftURhiDVmujpBmnnrnD7E5WUJAw419SiZ0rs8SYlU1WHawDEF+NH8re2Ek2BxFkyLYdUs24njq+vIPZHJVGs/5uu+dpUqOXFmv5yfihQdcDUfTLQhSaBh8VvuSbID6R8q6nDG47Pw/DkniKXN1LNwjutFNcaj92kNDR9IC+1TaJJYFvsfncg8tzpIgw7ylLN9O6mbTti1s5Eby4GIecAdQaiHSD2G7oxHZQ6s3cCmUG4EQPGVkUVLqbk7ZqgcZtIZLX8hA6dZjus3VWMaqPYObWSkRJhsSiFJzxRsnuK228ZcR/bLRkgEowsBR849LLUoippmDdiSONjU/SBEVSSWJ4QCLtSSBA+d4zZ8mvjoMbuu/IeC0FWSv7sNKoBMPePOzL9OXIxqaSsE+/kvs9ebKkANpeI5zcXljAdsqSXhdPNI2if2XlYXiyWhWa2+QNpuf9H9wfK93KIYJkVx74SebGX7Bh71ruNGPOyWk0XZTfZ4cPW9Wv6FLnO2bJ9c3Zi4d1zeavBsFdMnDxpnMberlCw3TGCyXG/k1xUxnRqX6lwrb3gKOxfErEJNKUXLnKGHjKe++5y9o7+IyOXc3lRiUtuEWBJIlR1Xj+sIQlutgF0vmNG3knPSbc1AvNT1B1pJ9Uhya+vh7nF/6Sun0W93R1cyZkl3liB/++Pb6GafdAwjDO/2lkII0PaIek9SzlP2FgUR1j84TsVrOsdEjm6aH7GWENR6aRMaT6pn2qEerBY2YjNmIPSdjdsIA7I9OIHnWWTFblrYVtRSB6qBuUUlLxANLc9HFyRFs5KdZ0IuK4RvUwfiFR3TwEG2wc2u7gu3EOHthVIDwluA5zcjq7XyA6wznzoN3dJffVrgcTSflJXJ+nbCwSB1PJ+MuFMKbAC30+RMlxG5RuJaYJ/S/0qVpnc5z0NuYtLNMzdmhLtvsIaX1Bmhj7sWxoaHCIuRp8rWDbrbiVdDEUt4c7GBUM79jjCtthLjWvTzOtUVO08nm2Y6ELNiZC3NJjRwuMIOT95t1P1VUNh63efyH1A6Tr/7Nb37o/ExS2cASr8znWu5kEM6lDhNxpKrI8k6gl9u+1+Qwb9RkvlajLBQnhJJPsYTZTiFBTnnNkljQPtsfCHeH0yo0PJgQVjgPuD/gz8Dz7GqKKq/RKhR4em600/qAvckpZOZKKsBsmIF0sn3QH+0TT7MjzJMBG6UxfUox51xXzTGJ9fNcAqaqGN0b5RTBUg9eCfWHjfDT8C1AzOY4dwtVDn9uI0cOX02LqwdGFyS0MbBphEJUFGMfBSG7TjnIstHHsAQOvft/ff7rilHQYoCn/8Q43XiLX+L1Q0mOEzv+gpVWUG6j6eQ/i3SQpjyYbFyA14mRxWOd1p2RG5EPGd7OOgHeJhRtpM8NiizVq1sYmJg0Vpe8VHzUTAGoK1Bu51dUeVMVGLPV/Apd4M63c4hBFkrrjVEYMCxADNqDgHiUpvOfZSb6BlIipSP7M/PON+oDirZM9u+2n4uKLxBWV0cGYtMPZJLUGcvvNQSxa7DjSAFqybZP7NRG2NYN1UDUApo02XXTTxMKuC33e7aNbKaLUaAuhaAooMhK104AVn2oNWpX1CH7FhAJC6Xgcmm/hC2w+i+9TLOZq//qBG4hII+ESdZ3T+mxVgCAc/aZPzlEXoJYg0ny6ggKZtEH1VGTXcvfSEoGxSfV4NLMXVqazVJvdtdDHB/qf7mzwNCgjDSU72mfYzgqphT93N8PfZQofBFYnCnwqpXBiL3glHhFiTX0PFhMZ4sVQVl5nf9qYLUtB0pynELf4jIBklkGNov0TiazTUiysr7NYK8rgjtbTxazpiXq5Qq7Ij2ITRFdnxZx1kzk6E2YciikGh/GW9OEAHd/SLSvFq5wH5uOLmQgWdX02LwMY1eMy2XPXTr2f6bP75VYCU0lJKbtLhHCCIEGLA2IecP931qhwnMfS3XVr2D1S5/va+xNghm8u3F9HjRkTzO1cMUkSuqHTGbveyFOyfQz3Aw6xg/ByMfWKET/cZA2XZnDUOpzGTkVfQEs1X1Yz3Cdfaj7ALOUMh2ggWr8U4A/vNtvFNNB2glEyug/WfskIjpsulhzo+1nREuEPxFyFXHMNPamRczt6Kwdb+5Rb36nef+1wCuNXr7gDmwf14YOTWalKllT/9ifOOs/5h/ay5IcMkK/BAs3kbzdwox1Eyb9DcSbpUEXezqUp/H3fVZA156Zfh7qWT3ap1Sp1Kdfltpd93ZnFcEA4DjAek2NDTn8AhG3NXZhqv1/RG4N3BeQMzFOqYQlTc6M/BXxMsHgkbeHAZ8h5aOedQu3sApq29y3coBY+O2GDRSfZk1JtfWnllC64tv1c58bPBPwDNXw2jMzK7ff/SeJeIiAGYFnYNXfOFaXGcR7fWf+aCZw5u4Hw5ohinLzX1AKeeNX5Jo0PLgQWfgPuD/RH8EcDYzavgtATSZuNzAteXBc18bJvy2Lt0H2NoVwc2+yhFEvsaVbQCy/qHXpaDgFAuYYU4v3rqgThmiTpmViL7Z90TNS/m4YupiQ8/gXjDMglAUuO9od3waePN+1iEkLbndt5k5TJXLs6HVlBcCcuUnT+0MDsYVCTbn22XfInV+5Uk+E8z8VMxJ27Sx/M24gIf1GtTr+0c6k8nys7dmAfxA/eMbzcIJoJgkmr0fh/J4o6iKbs592pfwkuXMomn3Tg9j+bDVgs6iepnKtQ3ecOqVNNj5A8NwWbkIXfnyN1sANvgtw7BFx/EL0oAXPtrGKOmWbcPfbjr2QvNP3oh08L0wKtoHg+ewgD8XxiXfUi8/UqM7s9nU2xL+W/CV43BQIqFWb5RsV8/h6RUCyPWjVGT/nbDB6l7nap4+8bwGXe7rZdWXsNmJdvUZXiMDjNp+TSK4Wm3Kikmxfuyeh8uC5lmTwiBgNpfEpaewvq4Ml88XO8k+X1qGrZLM1VEA2MENJ3ow7BZ+bymP+VUCqXGZSieLZXc2VEIbVthaMActziBrDkkbDMqaMUm2Vuutf5OYFVM5VRcf4RhbwhhwEjjKUl3dZoDCT+FGKTUbMYFcbK0XOThBjICMomdN6gJU6ODe+bK3wbpWSlDyrfz4wClGR24APtwQqalQYgH1nhp9bW3pM8w+8XSHQH+TPlsvBbpas4PLjYBqWv0M0XLjhVKOtGQqORwcLPNTNFC4oGFTTSpEEFxI3iGPkjJvVJPS2w3kXwbwv8tZ8A0mFTebUEEQwPjsWpaMRj4G5ZcBAPmqj8+m+CSzjFIdrY/L8NNU5KT+iV4/0cyUYQK7zMCRrwuPnhb2wpgw2XC6X1+i+o+0v7BysvDfu52ZFLmudXhsekPLbkKeOQjZ220WP3kpSANFhN5MY8iCly7BbA7hKTqmBk2YxiejT3ckqo88TJpwuJsfjoCN57RXNejVRy4ioPuiVkH/UCi/T18anji6R6z1tDUywEKGTV+OCjhdf4,
5IfvpVfAchWUrhz3rGtQwru0iYGlA9STEYnVsZhMWrEgH9pOpETUc0nHglf/KzSa/hZgSfBvwC36SZ30ZQlMyVaFXcoCYee5hopEX/lvgjYM+HFFd6VgAiZQ3+KemVQmM7WSDpkA4oLJz9KlHZVC3WjxSIKtcdIAgC51D0OnoO30RN1a8vBI2OPxrE+xvfnl8uvk5CeB4rw6oVTyeFBxaEoQx1elgXBaJcYUTcDjwLyu+RktS25VQaRwO82wo5tyO24XxwOYxuKjQ8aBBduA+wPKPsvi5nlJ9gATPs8ZiHICIJ546v2LxHipfUviftJMofK+8zucx+aHaRdKg2c8P8IgcaRSaVNL8JpwurrYoXvE2MiiCfrdOsluXs1SsDHQKMoGqcv4BR8YfIufBZ1AYDh15B9tc2mblI1PzlJAksXgNTNzTYMa+4zH85RusewsUB1boJJRYPFtS5XO6FCtX0b5KvNWezw/g2mLMWhJePk9YUbVLPNA7DPltLJuWAaIuUkP50ipZAf2tBb4lVZWvRvEKPC05Gc1oIX3FmZSoSg1YPJQN9pn/8RJEh2z0Iu/Yud46IIMMzbrpbQlL0m0HCXHwRlW1KYyUaVEpUfrVXg4Np31H+kxgEboGr+sZZ00Nyd1QTZt6wU9xx9myx1RVjVkmlgZ53Wf73fVKVFUzDF5bnJBFK/iEyh+FTkUzc8S4MBw0XRnssNU25ATQ9VoNqZ49LYld9uJGhLmAIndSJJbdav9oM+9oIQi03z7anSBLgRaug6BHNU3ATnr7Dp+521tKbFSh6VbR2Yp74Xnar7rAjN1o/6bVQrn/j+IfwxB24Z9Cin5g6Hq03APmbdx5rUKWBiGIcoBRyk4FQGYIg6/PholrJ+4P+C3zwIMPw17UBRl0BPjkRZtaHGzjgyOkfdVab4GaXo7THGE/Fzb7FlR2ZnC8S3vyfn6wnlQK4HjJByqmX8A2NP+WCkLkjZA0JtDCsttO8RNhqymRxzo5D1yGMPgeDrTNzUPBzxHRPFsbHms5GN0mQRIQ+wKWY+YRa2EMPAsmxrqlGK3kiWkpedzrEeKMpoRa/epyLKlA3R9SmOM+izx409FGeAKsl87cbZ1AqbrPLBpmW8iC0BqpiLeycaNk27bZfIXI0s0buwnqVPsALvFwRlMg5IJzLrQ10+Qpl+9zKIeXpDUbactbZifrtPLIEVrG+hFNzdtKiyN7kGe3oPNdF0mwrbnV+YUAYI6SY+d12vYdCjQ5CEpy3J3QdV7HdFJyQZN1kpilFWB0soh+aox4hr8VhbSmuUO7EdbybU4y4UpzNd8JW68h9ae5oxJCuwEkNIlao2vpBndIV6D4x3t6RKi3m3YELcZH3yEAu3i9cxmVF2STxAgS8I3vMvrncWhnQ3WdhJxrn63PTNS9CFr8D343iOi48h5KM0H2gvsmaldb/LvWRhrpeoevyDPgp4LEV61SVBhcBfzZ0YJCI1geMVpIVdVmFPNQK9Z2qrc/WD9Gmd2on9vOT+SwDI7Pj5H6xJSj/OQdUBPWQpiRg496zzclpuWHZrhHeGjQ7GBBheA+4P8Ef8McaRBj0TCqT4NEeel9qjZOJzIwiYXUulb4rUTMCQ+3Rz3wYW1sS+nenSz8/4OQWT7hwQxeTMUEHKzfmtX1UGaTyBs8lC/MCoujBXWK8Va/JTu+CMuridgHSjCH4j4W7TopvQJbSk7WpkleD028vJ2fpwbLpb1B1axNHAWEGEdI4g7Ii5tML4NEoUujoVibFt7Yzgjq5gwjXlhHyXOfBCVuNqnCxmhJwiG3+cpTaQtACXipTUmJ7SCjVrwigKUjpfqX0lZSDspnr4c27hXGQaL/vK0nH9ojwXULk+QtYKI4rcuqA+zIA5fYicnaxT6SISOq0vUK44r+2S42Ye6AjUWC5xHFbhas9Xil7Q3p5L7hMvPgCDK3AvBl+2JE84nFEHXLH8wqExVxFOt+fEZixOUBf9YCKwHNsW2eKwG1ja4rwuFGndKwFMG9z43J3EvutgRVRHwudooLcc9tXNcOGd2lq2hKLfePxtI5suUZEfAvHJY7iBAmcHKixiDpTS2fJfE79eBTi6EiCoHgmGSPUX2uhDVrESZfbhWVcg+QsQg66b5jIc4py4HBRcUbyy43stuBMAby867uhWaKBdADwO2XOEJEOhfpI62Rxtf9/qtaThLMBHI9MNeYgLYLFsU3/ZHxQL7mApB73Pi6JAkyyl4z5olbPV+gO6NmFsHpol+1C4ugS0WN1UJYbYSIC+eIrMTFoKxJfks0BhVLLc8ZV096fY17XPHrs2YzB5RLIKbDM3T7X26yVxX4Bosml+rYmfW/xnI/JUSd1m1aW4SR9sji6eHU6NeKMIBxFaK0wbtYSMPydPcWvfzP9Uk4X5JvrDEoJ67gG/PfS5EGQBnrxWu2Pgg/y0lEJpszfD/c3yVi10722xGhhY4+tRRqjgtygZXWnJpPifVtbUgKeFw1GbBwNZ6wxu/1Jua3ETVHFCiAGpljpzEICysgT+mW+RNHvd+xcWIjQ4u7Xo6jmZrec7mTYw50sAn7Iql84I8ZARhbGZCUJqfIYAjEyxEcx/7LGSnitQYZsQmtWPVRawiXozHmXNOzqplvufdZDm/hXnry4JRxEfW52gdidDJK5XY8tzM5hIQWhYF/Uhxs7/Ia1iQ6ICBjCkm27Rm57Me5gMO1ED13cMW69uZpUT9LpdqByhHxRm+TYIwJDqOzQDghaV39ZOwxdjTp6Yw2DI7VVbV7m3XewvbydMZGnakw0AG8v3iPHgcPOlOC2YSX1J8siV7kf3PSRUKvdyjQ+OBBlOA+4P8Ev0WwniiZfCFAz0+KOB9FIUYfNMJE3fWjbFPBB4B8XvaRyGd6H+78/p9Ra96qcDRt3pKKu9FyL1CWwcvXHufNdB1nkdEzfyYZfzCEkcoMxrPHp1H6E6qTcr1pmF6XG7XHIBN/m+145NZWi1gsaJl2HyPsEYH7tR0AwUEQ2cp09B+6NLzsTF49CNSIx/5N1GyjCrnFGOox5gbaK5XDzpaBbdkXPWlAbicPDByX5Im3xpTudbodqEtSHfUIKdW/EEKv5B+CsPAfAf5Gsg185RYPJ+Gvd/ARpdG0TSwM8VEbvxnH05cVHGyVPl15JKay6lVtFnA+zg//wNWhHLNbtQDNnEyjKKZ5Bgrb/XHjojwD2WR9/9lZCtzclNcE6loXiHdJnB6esMTAAAo7sbW+LfEzIIqzl8G18Uu1FXQMiB7A/br8QxBWidewoq9SBVaDJ/Sfs2P45xAM7Q8/MQF2pfEmyFDKBsCM0yeaU8jcx0GSSHUt/JWAQqn5NFlLav4L4CCPUNybtkyulZupeUHWTMdtIxOKfHjkvjR/SVEtfrEETtVhFqrwNEoY/DTz2+mDZDvXMSgY52VCT13NEOwfc7+cGzMVxHcBQCPAb5OOyVhvMjNAvuOkW9c3QlRuV7wmLPlvrxTY2KDT9O+964XEaqwWmqsVBhniqFIDJrRIJ8W0ix0oFrUZJzmqTyAoxdDsn/n7K9dl/DE8WiJJBBcogtkH1JN28syMDCbfGAMm5rV3fQPcQOW8qGnyHBz87+OCnSd9bfM9ZlxOSzedDONL0Ieo3LaIhXdqhICzQrPrSe9y/OI9aovSJZxSlTakY9YPw1YVcdYCahUN5EdZ8MLTrvoZogcZlrUoKqkyu+4ch4cWuxf4UUYqMijgXRjM1/D5v4o22WYdhigK5W5w04y+a8/82akSDToVKfEOSFWi8lWLRDCppr7O0P/NADl9iLuZUIlIP18Fgbc5dMovuhJjsk6Jl+NV1Rgc1dioW6hGm0xwYe+SqVBf8hlU9maK3m0wcnKVh2mV8NsKm58y1G6/pOyPbD7OErFMBJ2//AZ4QP+YMZgA98NASmuLpi4CxRKTU2h/k1RkbTZGAL4WdymlyU29TVJ7aLActSlju/S2VkE5eR7EsLYaNJu1kkzRo3F3YKR5xtqhc1iQ5Z8YSMZBzKzKIIYLMTWNEvnfD67aD/QIp1fgKWAftmqD5yMWfHOWaoy49xnUxjauz4zcwz5vaumIv2hZszDhSgWHfLP/kpx/KyeWek17YCBnjJGWz2Ps47xYWg7dETd9+dZaiZYN9HQrPiqXs8OgNFtj36bX6NDxoEGj4D7A8D4R3ZMDuueSiBwK8w3L619UqB2pPmWzI2KXFaZ8oZKtJq2OU3I3FzyPcvioh7BGDy8TLaipvs/H2rhr84TuB74ETcNSoPhPCi5r3NAyfSCS973oEoZ7BVcx+4VzXkbac67gLKYURSJ6YqZvj0RZOJYioy/NTjlS734eaFJZJPUzoF+uYqeTJGBeZHKfzB9DzQArUyLK296zabhuikNYsO3AazMQ3cvXvsP2QeADYESZjw1tunraioFXAdP2+LtKIkrvXg8hdsA1nqgzY7ZiHql5icuDLnvgxhJOH8LoqXukAPgzR7K0z7IwWE91Q0do7s3RJUTxoBkU8FZno575QaOz+9H5gqcK1TqTZ0OexicWJ7ZXOHNriAi/grMNLL8AAWBy2LinoxJ/zByOH9YGvBzS+Ha6fK78Di7asOgrEdfwPsFZ9o2J7qxidvUwXVDDU1tETJCrDjkEvrpJNuqkM6R2FFODLBBG74lfFnIz7696qhInSpJXhXa5ur3fNZ+4lDxzFqrznaWvGudqqjO+vrxC+egyCGB5XMvyhpAwoNlMcoMOpZGCr+Vo/t4q29Rs1uYSu70KC9bRL31i5tdINuuJrnML6uyOmDYd+Cojmqcm/70xdXCtQs4N1if5SSmsS63q2+AKy0s+7h+EUPvK3E+u7q0qb0ok3O2WtwngGcNZjCUQi/CZm+kmtLvHOfraUP/zCaG/Divbif7HFhbj0iLtepCzLRv75zYcj0EjAUImhhSmvv4DqnBv19EdpMFiDXrF6/9z6Su04RsfWvna/v2PSYhcI2c9BHqCZ2TVmrJ8vnIOGepnvJcZGU8VfmGstA5VtkCevx0h/PMTVo4A1/D2oumc+dby+yJq38WfFbGEOh/OJtl00sNC+OOaF2aD4vEho1cYkU701MQ+1nWRLnDjINzfj2SPNCVtQC1WnLjcd9pT2+OgIN04o6/kQtf5sVwEQHzyRm6rBIl0sjGxenCxhTjT9YI8dWuh22AxRp2LaY6LDSp0CqYnBdK1GJpwMSoZWUYcvJvBLP9ClJXLQ/M5+D/Sf8HhUkE21rH/zNcZbMWQlHrROF/mbxyvyaDi6bzgDuakKlDTrVMqVFGRTRPmlym+VfLlPN61XxO6AmoBpQ0smt+mZIjfltKwDR+HCZtB+wHSNkPgOs9cb+k5dFZrq68maft2lgPRYmzhoA195oMV4PydLVNhv6vQYoRfjtNOdCCNDsYoUXryFIqmnlx/RqSkG+wSn7bhR5LpO4v0zA/rrjbvzMnIPLGkVcPXqNDxoEGy4D7A8D1VXI5ocmVx9CTgMZ8i0j4Rd3qPvbop792jNGMda1/P2kznbWB4qyRz2faNYNRM0M8v8Bp8oXurcsvaEc2uh3GStvzf20TH9oxNFzrV+J89z9vVLftEqZVoIAXlShkqpBj26Qb+gRcB3echLwx9f6Qk2GZA0yG4EII9QtRd6bZMHw4RYOBFZs3fXtE/eUM3ZkZTfqRQLrHLvC3n8dBzU/uRzBTXTGx8f3a9RMA0bE6goC9AchsV0PiAkLb+JfUuVaDgr6swny2ltIqka1VP9xO4by6um+S0XeMmw0HrlyW7mZcV7llt86p3Fq75HbkDiii2hyg6VyctD34pCrDVe2Kd3iTsT9ZEDWIPsZwTge/V7XTB+WUTgWKDOELU4Rs/AeEZaK0guMd+c72aHhFCR11IBzwU93CEgXCYw4RwQ9dyiov2mjI5xQl5mdCc7m4iEUuaFuO6aL3dTHWzAqrhp11w1I/Xyff6+bY3Pj7WZEEGgTsSgxLI1h/F14Ez/ItX2UjKGQltHzIFns00Pi877uEjR6/hfOmyEzRkeYkAflc8sYKteCikKtSLj2g8dBLn9V/631YammdNSdOPFEnnAOATZfW08kD0OJFEpBNGtmYTg0aI/e7K2jYlDbPvxQrnrH5NFB+MJV9BtkXqDMLzmPNzNGhE5EHjyKaiZU3KXJQloEOPAU2ZWUrkdn9LJ3BgT/8FqjdPoOdqyBCQ74t0buuD7Z2jAcxJ2ysGBVwhHTtGGQ087GHM6cRbr0NCFZfoULvSAWPJpPKKvl8D9pxoPiAdu/SL68NqoW3ZenM0sJBNUCf9vknc1wIh5K0aj4w+BR3j1iTboFncoMf/t1aZ1vJ9fT21ZotSh4DprlOnQnXochdYjabzoGoYu2oq3x1BPaEj266F329eQK1+TmB0t84HFYd/HLLJM/n1pX7rrTNdQCnoziNp9lNW17W7ZT0y95KaugEhXmjeBtvZBnBRq4CNg2VF/pgUQFrIBs8CDFowtHqsDzkynNDX6LCxgG71NyNTweLpfV1U3NqlJCzeHOd42r4GSenharUHn6LlJqZaNRz/0bmNDH+8FESQPKZNn4dBAS5fCiCxgsjjyW6db6TJCZHXMdAmTCnQf3y6LxxDJzprqhfOdNL95v+6ivun82vY1V6B2TGxMd81azdKEtm3acUt+hKaFHD4xkq0oKGUtiVwPHXGENDlZikr+ZSqXDfVX29BP9taGn2xYdsFsr0JQBQUbZ2RdX81oGnLdb7ucl9NNaVRZ/0GeoDHFXOWKNDsIEHB4D7g/wR/Q7B9N+aicLrtto2swctzUkfJ61WdRaSm7eoN43ZP2Q6RLFA80I+GyxP+bn8BTDck7tjAihFSY2G0bJKQI6ia6C7YAvtIcm88HhVGGpAKdebeyEMqLrXBL02CQocTRspR7yvvYPxQ3ftVVhqE7JGNXjT0+gHWBTmzv/ReLSEQ3vpXCsjj/xeZBVCO1ZKOhYN6t3OvDYoDss0bqc/bjGjQUvU0z2ZnP6jZF6YY3YEIFHqWmT+gF1Y0FiEa7+bfL5p9+Wa7TZM+1YypjwdzXkJ5ye4DLcXbYu2k1RjPxTMHpl7NaVvggNhDgzMjdcO18cl4/Kj+01JKbLnwA3CFZlsm4CPAClzLluZ6ioKHctX87324enbkZahj9pHDqNqEkd1uurLN7AJAO0MrLJyaji+hkEWzzIi+Ec0d9AqQJRAG+/a28B0R7SSuh6z/wrUo92I6iMRZjTu8gF07dE5eUKBjOFvy6Mttw8/zCGB1ih3msLd06HiwIVAuqa1i5YFxszxXI5Z1qj521VsaUHu/bcyqRI8Aji90FwH9miU4Ja8QWvpBV3ITQTk1Qaj0khY9PduPtdpxjYQp1IdIIjVqhSwjm97hHwOKDi2nkKXwvss1qwzrExwpdjNPwD8wAOAz+c0XXunV7A0mwIi4qQbqXA1xM9p25daCr6bz8oM8CihHUvdDKT9+2xC1QuI0FrnudhWnboUhpmK+Fh2yMgjJM7HEtK3m2LBmgNSiYpG8GebxwNHT9y0hPyCYz0I9w1EmH9LwkRv4yqIRwLRtINgbKpJSnPv7NmmYieyoCxCKY5AXEBh6dfXD57iSdPuzd0p/VARKhqHs1NOXoWgnB0EVqA+FXbfKw0Fp/aRDA3tdRT9C2snTnkc0W4QWYEmhQZxLTAztKnKEwraMHzBt4vhvCpa5fFiwywZjm/u9vnAehCEjyXnbIWluVlxl+b4YQPUJwLS8MAtDwMu7ZDlXtmKLu7KuOuCrXtXIgj+1uy78UPvdlceGpW/BIHHNkrq4dUypiUy5NnmXQHNmUXlIZaUNDUUaZ5jE1Kcu8WeIPr6/DLuYmCwpbPTvp+z/aqz+XMIjW4amz1z7mdscv7RgUBLS9mwFCwt1lxr6C3xumwqJXo86nl+mNv3dvTNmea2ynlLsVJ0UlFa3wlwuBOesYE+3L3SlfS3svVdx+Sp9a70mjZ6MA7t3CDyatTkoVnGQqy0lJGrq46giZe1aoUgnhoXTNjcKbfMzyUi2RJJo0N1gQdDgPuD/gn9Chy+fkIMaD+XjoZuTh10dRRhYcKqLQqIoWwaAAnRn2CJqJbQZZZ/w9SEjb9JTzSHY/OWrHyFAOwmEVeywhRHXW+N00xLrML86VjfIhzodhtvVoGLhMcz/LJzE1sIVeHn0w0UOXwJoM0/hUQLOFOjAZa+NS1HKFHKrrcOnnCCIbRU5U08JgxeFx364tDcT1OVShGQXVOzYoJ6M2Qwaq8RVHQN+MDT+a7pHLtpvyyAe+RaD5dSTqOK7A1JrQn2PGwUvGYh94AR0FinIlSIVPUqQDL9wmr9MRwCNa3Kg9qXMXUDS+yTvC35v5vEIYzN5GEnslY+aVkaR1DaxjhDbRvtjrpKQPIjV1yCmQlVPkyzSM7lcpVdxlFKeO3FzLVrZpDSJh1iQ5Ubp+8/ApsdwwnEyC5kTBkq61h0nXo9Y/M0NBv0Qg4D5yYeaNt1IOTIzZZe3SG9jsJwQn3yTVSuvYPCeYVsgWiS+1ynjIxFGau9AGeKGosllVcqhKyJoSxe5WRWSyfKF73Yk0jBcBy3/EzXuDSVYnd2jzJPZQb5uaTpazx5Hi6e7hPXyomcadHW9f8h+Vpn6agBohHDdhXTuGmL91+aXNfrseeiF4BHd/qDmiRWHpp1TaJdPDH8QxDP4mJOfCqK+OoWMbavzvFTIZFWm6tmZeJ/rGJfsZ6/qpswVpQqjNRxcrFfdPTZZPcLY9gZEMnRRu9w6xKYS+ElLdkQnKrshDD9HhcFYwIuszSUUOW79q80IY8u7oddyFWzo8pZ0/Mis+YopgfFHXSK1GopxXdgpitNBRAfEhavSSbKcxFvV+FclWBxFIIZKPK3TJI7R4X+2R27IBUl6vmisjsQhRDLDGp/JxPY59s6mYAjS73bjJDq/p5wKKVPEwebg5M/0HPjbpsqCvO7l/dT4XCGMxYqKEkjdJeU+UNGlTStZ4O2nkjdmatbm1PnTGOb4sM1xhCxu30HEB0GaiUFbIHvPV3XDAWF9CEnF3ncq8VjVbgY+ACee2QQvXJpz0nsUzrzi63Psp0+CgWpQrT60Z8rPwhD0jealr7lh63vvQo8AUz8uxg/LkVE0xJp7v+4OLsVQ8u3Lq+rk1Rp9FSUWwsdn8qofl30KfdZZtrYAjKy3Z9yaBz5BHhXqZWWX3fvaqpWpJce2gWC/1Gn7LlXo0NjgQd/gPuD/Qv+BxzOL2yrLzwcPPYhhVHu6sQ75g4W/n8W2knFEDVdM7ihuxLzAi2vCrdFgFGWyZXaLB36NaHMseW2+TKMX4gR1Ga6ef2GH38ymUlUjlvdGSLlONnUHzfUhvr3oOIZBWpJNJC76GSZWATKaoBMu/tmGuqackIckTJJeNizuF7greVvuPmWokKMnDWXBjCvxca/3H4o19ivXP8pqokBtTtQ0zsaZzcfDp09snLP3W6ZLGWwy3pY/vDBbaZj3JbdhKbG/yoj5KrUO2CLeIbtEGwWdx7fJjzDBwZJMk3t2Auc3ocBJt9xnME/YStDKwP5aKh9WQN3exbjrUEKREdxlsKDr2q8H7LKx9A9DapEut63Ue+0y9U7sIVJF1bfl3u0N0Ul5UPn5D5/8fhhsiNWErum1HRpYiaTDPWsuDS28jockeURQM+5mbKCudH+5iG+MdCpil9hiYINSH8PeOkS0NNkBDc3Wr2YxC1Yv1xjD96VVwubJk0wrbRg/9aBv6AkAB5DSN3joo4VYYdbxbfkzksD5m80RuTWR03Sp/7tKLJ3aygJiYwGnwOrUGGcUVHiaSG9kqC3Ycs7CPPLc/DTiYhyOeTyFGM2obCv63OErG+lJboKJSZPPqYPPUVMBjvkGPhPq3ENuZiHZ8/Hv1ONhqH2ruIz73hrzjJyQVqzMqyshZAUh37/xKUmQsHB9nWzTYqr1ArUeKn+Jp5vbz+uP0SvJVOj+sq+MJ8X35httc087wmBG3t0OqOLP8Ba5pi7OocpSGRTJYVVaMvlYA7pMTdBJ3HkSxB/55BQpGR3LLIIL+dAdxABVVC7tGpG0HFbEz6OxGCuX3a+T42Ul+DQLAAvMmX3fKBImHlpRkoA76hvU72OFfIg1eh1tAcw5P9vA2BGvmKM+Eq8BD5a5PVDmI+6TPBAageSh5Lh/o0pa67Fb86KJt2hu1pwqFDnGpNRqpBG1ZXic7uSDFTxiFcslgBj7rnxLjso6Gv4hKHiwb7ZmDKICSEMAU2M/KD1+oV45l3XT0xOZ8JvZL2tF+Xfr9WbrHkXYfZwXLsXct7ZCMY7QbWkcboIFUaiffiwuvIpIyy1Hqn7sq4r37vaTkVwxqDFr7F8LfZRbW5zVvWGqam5Mng9DX6d8AC31UbQo0PWgQe7gPuD/xf/GZ6zBpKRMcCrwFomLnq41D22pdwZuEnkCsNzApRaWoUmCRYeb5cQhO8y/X5ppqDsO2cpY6a01yZtcGLPjpTEsi1zYN/NrQhp+O1ILuljiMh1bIjsiQAJEVTR+rHXRD5BMgcBlol63BcdI29tp8Nz54mVS9Cf9lPa+f6w6UKMJlnCJax238sJTG7zotbpZpJHiXLmYrq1V2uV7CVxGILchB9+fafnkYXzZWg60PGos9ag5qwwKTLA2VJWUTWlW73k1FeUsiQzFDXw2TOC750DkYD8lUzmZJcAzA8iAxfinZEDvI7/uMem0vgPzYDlr/X4nV+4sQKZjTSMZObug5z8Co0iMTOcSlMz9gb0HjJYAgCwTIclCtbOnvhAy3NYjRkPDzh7rRsUAbXZgDUi8KEdpU4GqQk7rK1/R01TpOuCTfn+jy/zoHXBJ0Utc5lcpjxtyNWhspvC0FGsagh2dBr8L2UA3f/LJy4I7n/kR9ZsryWhMjdyHGYRS4yucbi+GkAhj/75kojVsTUjL2ulQxbxzmIpKQEsXRzZ5s2jCccjCfp+HZkdxxQounrorxuE77mbJ6PP2StXn/CRbwD40tHhVPC7PLsxr/pzVhTGmqC5VOReViKf3970DhvfmxTGFt2ZzdaE0U4pvEthe2dJ6n6qyP+bJxkWFKXUxtDrOc0lu0LeGTdUcTXgzxlKvQXGAyqc6/jkUS4Uu86khwXbp1hXjqHhFSmIm2hZdB2XeeZEtyE0qlj6r96o1IwzTw42t2WVQpoarFcQCiumtLbz5ilMOoF1pMTzXOLT6qoX2pGUPgqVPea/ibXzDQxJEqtFJ2zoi23Yr//MLdq9P8JXrKon43M4Vu03wo2WnLjMMsZMZq+/AVjG+05w/CxXUmiJswXsSg59O4V7jPj0p9ezNX0/OrINBLOe7bRa1ubpr8eBoPIx+OjkYzUI5oTMzoODq9QQq4MMpXCfwTpUiJ6nsp4o9dX0/ZOn29EpdG6023UF/7Yd9IulTLFmdCuGA9eyXVeZTmpZ4rrO9lgNQ8gBjGnZKbQxNlyO96SJ4v0sSqZJhfz3UPX2MA9Hy8hvfUwvNTnVNZksXl5tfPbL++aCo8rvYLtvvcRd2xGw6iLeBLqNBtDjJeAtWPXPSv9ri5Yq3vWU0sik89SscktHzkLX6/JuV9zFrwqAB7PL3jDiNrh/27+lh11ClrlHPrfIVV5ukKEhZUdoUhJs4lOo56Ba+DYxhegK/0MSvPEyYTRSKV1KcKB3irFLxeeJyj3hMeJHZ9PezTpMtMof6h9fIUQ1YKNDV4EH94D7g/wH/gWG3/hbdsIkj3X97WnPlHuzPy07IFYEkSocTV3uxpSH7SL3N3hqK81PVHacoAKbCuCxysz8z0VCUvxlz5xPhzuR4Of71J9xJjicAmDtOj1wh+K+fVGl4SzbMduZFUTaQRHvAVmGg3VhBTn5rBKPYFRIiUgkW/XLLdFHXPk0kY1CjfKqCbO1UJlyerxCXo2r2P6pv4tR3uiqxr9tq3802ZEVWoGU7r1xS6fD+uSXDCSvYRFV4m4d6YfdLKXnaAEUJ2WMpVoZGJJfb4mAhFqdo8cdHWwDK0+Egi+Hq2nPJSlKMCeaYN51V/EjuTon9bi92EdzkivqTYvUII9IvVucBJ182oWM4wesYrHFcZivl2+c7bS70MVA6Q7C8FG61hrTwGKx2XXuEWJbda1LWcRl8sJPICZlism3r7K6hkZW02sM0rnyxsoZY36/QJMUKJIym451MB4CfGBaYN1UOY89hwpX3Ijm5Pl3x8x7pP8OByTRMVUbeEyLCNM1BivGk49+Bx1Jt7xWySys9xKtG6PiL4OY36b+hJfGkp5usevrg66mWS79RMxXAEGFebLQ313N6F77qkVH5EACUOtMIG9HZwAop9QxCDYyqOKY1G3st9Va5aKJH629R06d+XPbBoUcyvU8c1he5BDkn1DIIgySeJaSiBLcsa0jKz/h15+j76+UkoszmIpM56GuPKbhYJS6nhNe4T0FQsL3xriIElZpDVn1OADH8v/1IsJJT0UhIr7Nb3dCmRtqKOMcoZbrZY2M+SpQwHBC6K1Uzq+pi/kV6PkUZptmmlshDkx5JvzCObmlXnyWfV3h32U6DhykbsSKycSE74C7SuJw4V3DZpyAoQYNtAsjsid5A2+683N1lQE6kHUWSAQGaBJ/QTSVkpazUU7zH5vfCxCGM/FwF27gPxGT4hF2M1noPGReqbmcSEfEjYJsDJBZ6eWa0DgPrfOW1reu45hawcPUYxN8bAUENRLWM1xFWeujSuukERjaVh9TmcJJD2QB2bniiFkU/TYUskJazh5/8GI1k9fcWY/OZg3ymDuQMaGtvFcqdN/A2Etyi0o771UHJnCUMcQdyCQfOiJKl5CZNbB0IO7E5Xrrjztiq+S7sFX+s0QG2uko2qNDx4EIM4D7g/0Q/BFAnm6OaJ1xKZagsUlgSWgkXoHjBjY13vHMR9MLoA7/QInSCx5zeWS6MA4wvQEIf/yoUtzlxVtOoMLcmdJ33yUo8aCfKLzonSM3zNpTUIFdmYqRjsr5wWjgF6/zx8EOxOhMz9slRGu6FM3/lunAfbwtqaHZNRq8tWwdNNnaOFkseFgCRVL6U1yiM0Uk5H4cPYKebjj7PgmSz3SMNXuMLIA0sh1PcXUVyk7GgZj2BOop69n+fcetX1P60VmNgXsXLUqX3L16z/BEn61HIxuVx1v3djg2sWF9GqiUD3RAcvCpgVnW5OmJ4OtGgJZfAW3/4yQ4x9lIfg1Xc05CFWyxUR6jSSBlcNZO304r/vuQCtMM8+lIwrfp19LTQr98YHRz25w57l/Mvjm40TFcW3TV9+dXIjr8H1RoOZC1e5VHrZe8LgeWcah18OpCzbtQYD2weJfB1657Y3lq30xnjB/keY5lWBF9WvGhjQgabGd0s5x/YVLE7KT/0DEosrfbjA6/CWTeU5QRW1KWrrexr/6pDP+Pg1zlZHZgYghb1VL1atUuVfuN8HzpZ8/+4A8pQT6SbztS159aZYAPcvEpcVAACg3Zqr9L+136Jy3aBCDrKweBxjjRSkkDbD4UEhUPYD7XiPGEj0QO2t5dOVuIIKgRjfp0ueFfQTYhq3BNuYvTy/qN//dd5CxhDBLtkI6i3mWNaxln+5+vIyCbC+1D/h58mdrvB2j9Odccu0zBD7Yxg2p5Qz3Igv7KF6nmk0taHJK3y5TfPJKT6a+ShaD+ya/bWa51p1jaSZWp5WHG5EvVsjcWU8cKbn/hr6nnM4maAB+YvzoIDrKPsCR00q5NS4u/mqV/Ik2dUf1T4byQ6rK77N1ntz4JD/ueojxsRgg/8I1GiySs32n6uW56Mvf5SAE1iL+TwrRfVicwBvXCOdC4A4FBNvIW45MbMNJx40UwraUJDTi6LYA0ujlOID5WEL3yv4sRzofgAEm6ZuO34CMhCcj8KXJIuKWoGs0uKzo8hIAGjUIYtim5uhUQzY5AL9xpVw9FCTgN9xpRy0OUHlCjzr4dL06DFR0KWI/wnaMSJQHoaz+c0C8FWICuVdGPuFqtIVTh1fNdYZp0w2k0gr9AFhBIujGO0xuWsdHuwNNgL7KskDrFlBO8kS7ogGgxXxDQsHN+r1zjKWi1bHZcI/j3lf6viE+9kqA2j9kdOtrsOj4R7z/TPMgO2dyc/GdJFu0L9EmV1alrhgM/3oazY59Wywc9NNhkzCCf407ATb6SrbOjQ8aBCG+A+wOwCrRrxdYyy5bCLKs/CU7a9oOsBI99gw/150sZ1QtxlrFZ2PzmhO9QHo+/dQet1pDM2Oceng4B5OLu7imdYfop2MBvOaq2bmnD+yNigMXsGeFt0XgZvjPWOTfnN2nroyga5FguN9NYD/cA0A24SCRsNykr3FQ/QfSxuMEuFpWK0lfVgblHHARZ1k25R03rFhy1FuRwCfOnpb8BYEaE3ZWybe6CTnPsLeXJ64zWoAkE2IlDjmQEvM9wYgZsC4R9oTbMkpsG6bijD/RJPbtBIQBVfrfT5Tl3+9eK5T7mqv0MA/oMK2qMNS6mwr+mMwMI/7r88F/W8efqUsTmWX9IYGiczxLlMf5uaAriMdShfj/3VqcCQkiGC64Ku15CPvQAVDadjzwXEy1JVmDo+xkyf4sGuFjvPlTSteQTt/TC+8lSWlJ9Cu6r90vdZ79CbjNlD4RnkX4+9c9GHpyeJ9AjlekGTEtDTy2wymV7Nla7YlYFTJ3KTrBhDjQzWGl0UfA3TRc0Q5HEEjefGssZFXWUO+pxNRy+Qe0kR3PwYATDAhsa0pzTdWfCzFISkTCduDjY+pFSOnlzSRORQgSY/oFUHTkkud3CVNPblZeM8CJ98WjPRbtLr3deT9LRXelNjDxcj+78EXKbZVheT00b6TI8BPPyU/wkMgUP3fwN9LswTB2SgZasELFVf+NgN37vg0Jo+7vJKC9slcoD1QxqmmIndw2Roeuwb2PMxThfV8MFDD/HhaNbDU6OAsTPVbZnkvgswOEWi5MJaYHP5mlV9XOCzaEVsoxhwcuT11a8p7jxn2qikvA/B7MqFOcuCx4jplGlhxx4snMvQHg21AqlbPm22hdRnFYK32hQ6UywD2QambksRD4l0iUoSOgXI0vRNz4n+G4bKSVKLAZceQIgy1K9gAHiUP9yz91fyV1DnshLF0lqDs4Qzje7tjh8FrEgA2+XEEmR7dUbngUraXZIozRgASyaGP30D3/eRHG0IK5ldN7aQQ+zuIbO4BRZB97SDbvO/1R0k5Af8219OQgQey4V9pNPCT30vmXW1N+lqbXYsLAxx9vjQ5r43JmqxdYa4HIuGycOAv1u336w/ylOTezlO4xz8jLmHtiRAgrgZaXqd1QXTDdTEzKs778EzDA/yYqhN+FiBPUiP6whCryUXD+eTFj/Dx8PJI8RPNijnAvi0Uu7flTDXj+XcxCxw2EhBHUqTfpJnk4SkCr+5dP9ynSbKxQpG2CxsUPQjypmzOg4hgR5H1DvHs15n0/4cU3W+8XrA3WjRAGBCKuA+4P8Ef0kKQZU+FXF1hPhNq/7odosZY0B5KHeKS0O51PRSewIhmRx1ZLU6yujhiEWs1p/qeH1IWX1vWZEaf49/KIHXXQb3M23Ql7iAm7JeJmWk7iIibHTOrVx6H4rw4qieYwz9Oj+Tgp17pJn0eOufsgk7tEO/tJcNmBLu7U2UYMi1jBnhpBZDtKt/uqAtgathvaC7OB+1Jdg6XxZoZ5HhmSdPdpZ5py4/J2YsQigIrVXZDSdP4R4xM87DwzZFCVD4KOiEra6WgDYitHdFePuHDvH18CQvZudVoOJdPkbNnyxgMjpg6JfrYwwurmc5bZOCAC9RV8YIfp6Ki14X47PrCQK/1k99+zMUQPNwys9OFxU8c9DfGzTChwtKszr5n/pWh7hyGq4jW14z6lrxgwMe2PJgc6NsX1EaYLOc6ICSWK9g4asrvWKVjBrxSbATCQgU/rjFy3FSL/+Di8/q7/Z4IsmsEJCdnE1qHt/AoHECOm8CBYciz6CzMi16Pq/9sXMOmVeWSRzDL532UPH04BggS78+Qu3zqgVBnfX5taGdePQApYTXdKsQgYCKusMwm99G6dzGJksOXc+DbV/GXX/l8w7OKhH7fh51THk9N8zb1t5PuHff+cTUESLT7AyDpR/9MWlAT6gcQkQu18M1QGOKi6/uGELv1qWcTDwsEBYMF9rd2P+sBMoi77hxt3aT9n5uyy2HP/p2dVHZdIrwSLkeCSUQ3UHv3qrQhxkDMDbr2jqS4dNGB4KuAYAMJjZdYMB2QmCacIzQ3IdUUTxzlZGjc++CUQBkuFrtzEJzzJ1/maotTRh+PBlVFM2AlyxpbZB9+1fCk2w8BpBjocK8lvZb1/xQKyMcQo98s+Z3fytdsWLjynFpm4+C3ME3xn7uZjst+YSPrnjGLUArKFF8PpVfjgLSo2UAIx6m35XiI3j4dBemWVC8Iv6vH85mjHlwdC/aJtAgmc6xhm+JXOMa2JGTpaJ5m3IerMtKg0bhYGUr86QysTVDhPJFb7QFfhKY4I3p8E3+iG1RXKl5HAwiKobVhOGJJ7UcqtfqQLu7YQekWFS2ESJVT7z2UrvgJ2Ym0nhxOkVMBQO9R/KO7KvHnAveczVfRmRJA2W932rCVBbr1S/HdAZ/BheqIkQS52b6EefwSUhaZnA99uFOsPIug5k+GM82jSlIxghssmkiyRLOOS8Zb3eAYC3M6DMG4PktB7OApiJeCqCyAiBb9kduKGuJPxUlBvKgueI/J5pZVEuvb8J13g3e8C+sIUV63Ov5sO0/lJxik+I2dqPdHFFISbhoEARY5iUlMKk45Ooj/x/izuKD2uSz1r37ZycjOXP3NJIJYp2Kw0gJFKwTBgswKNEaIEI54D7g/xB/wyKgXruqPdYXu/s6vs3+VfGxmodjs7jGPDdeq6NhQm6HnW9oooJUZCe1I2GjFwk/q+8gpDzKP2RnXzcPeNkS+CZc26MFZIeWP+RbsgwbldMtVyOuLbwcOvpflX9NF18K4/oYL4F7+rA4wcRzXPLGH1FLVOBoDmvnhvAyxEK/Eb4MIpurrAy7cQat+FrlmzOnT4pOSdwHkUQXgIAzeaVm5i0RquI0dpp9XAe3L2FnUNkBbmXGzXIjOnTWTmCmAPKrLNnPaI41vV2zMl2Ygzca60OUMtAN6qYQtV+IVAbXEVWsEJTLhsSYMZaaa5rHDdCOjzmTHTEz4A3Y541csAU9dtCJxTrJ8H9roAGFRg6PdDS83nfTZL0bZQFepB7s2UiJUZWnJIgx7iqFDM9jOst3/daFtHHRGvtSMemWv0vxUztQ3Oy1jt2/hE9O1RngNXp+x1DtdujOEIB0l+pkOgD19sxZLbgPSFMLOtYsbqeX92/MYu0KcLA20sw+pZmoUIkDvZv+eOx2d5nx/qDQ0FXyzUEILmS1ZcGWCoFLbboPNS2Rv+Uz5XTdNf9u3mkg+QYv9oxM2R6+PljNebcBdRDP5yXp0HNblUyuvnZNyx+0nS0k0WUf5lw4Yb9J/3TMX4Ygbx0OB69hagYiLRLS3GOVWuJaKiNbvmVC+77+8dA1Pe0EFp5amr+RQWrK9P5EuCxsM85tSlkm4b3jVPkalzEkVLLyF4vzXLj8UKJUGUQ9Ow+UmuxhWGRHlCeY45CLSiHLqX8QdSr/NzkpZ7XyLHE4BjlZ042b5zNDIEZ9tWE/JbRSZr52A/2ow8mPYXmEeXeXylQ1tHiTM8JttEhKDRw8Bm8Zz9vtC+MzAZMxkdaqWv+4Vfv2OKpxFYwHDhZWwgwautC4nvZGK/gL88/D9/RLercTfL25zoHwutPF24dBxPsuT9Skt8xle5y22OG5HW5tYA2z+hg7i8Rt/76eRx5yeu2YwOyB3ypLiq2L19pSnQ8m28DqEcVLlCVPNfl/CV2jR+D8eP2EAsx//atQky0DitTkHxz2aV7qRkQp0ODItDa7h3m1wAwai9m8LR/czPxvlMjWHbDxL12ti08k73QHtr7TXhQuem2liXT+JQbE2x5usCyhpqc+gUgv8OQj+g2FF1LWgH1vQ/8C2O9E5djYIZtGrqbCx6eU6TL4VSAbp6+UOyPtkEMhcZs2jCOtU9DhRV9MV1F9w7RjxIk9xhUDywM8UcUf5kNFXG1mfGRZ/GxWdchTtXDDE8eGzkjQIGjFiIhAWeuSEjqgkP3TwziXCc/Y1hDaWxAKaYMwRjAz9bOf0oGrME8jcoD1MbOy1uegSY/WC48RTzcLixYU6lzLdkLFZ9ufSZJ+HiGcXC9c8fr/xZea94Ky6QhY+cqTdFqUtqzTg9INL2Lz5UOCZMQl0HrRDWs5HI3D/x5CCQ0pNZe9Y6TZlMMeyzpARMnZM6NwssMtC2Jf0RUT0hQF8qbzqNEKYEJI4D7g/wc/AxwvXLHoUGv8ZTuN2qkPbtIcTD2y1ZBwJCs92Jsj8fB2qYgXjqeo9/YNZu3XbqE2+cu4RKPZ4PdlGcVmsGiYweFp8UbGE+JA/EEs20qtojWE9bASfynGSAw1xkzv5VqF8g31eDEAzUvCQR9ijyxZCk5ZDB4oM0jcW85eRNNCggluVHl4Sq6YzHxYYZ2NSvmc6Dgp0mrets4e/aWmzKJFzA1PHNuxu9PosIfrjLeBWtaOLame7+WjS4AggYfDKFIcbHZGAy8Gx/7dkNXT5II/jp4ZEB5lNOQsxAqPExS/HfnBQQqRyrPztA6pDpfkNsNpGiCxZRkXuppJYCTWnMWdTmVISmmsh9+Hep4dgIfKfyROrS4YDoFQ+nIGTdyUrNj50sp8UwPLIMW+klAr+jhn7VQdK6ae1drOvz53nHT1Tztinz39H5W22fT8Btv68EHr3r68ZKBJEkiF2Mh3eN144H5VDlmXfLN3LCn0CWvA+RK+v4CIgieZfA54TeR5Uuh99HCs0wWC9JWSpzmGoiBoO0jMjnwajaTMZ6FH41JfubNa1y3Fxv4HI/+9bNS2cKB42wyEmb+2RjU/20tKa0m+LQARXknkUt5W9BMV2rZibNhzFARAMs9gIxIOVUXgzjFwiIsPCN+nFw1OaFtpTG2R4LWYbpZUl7FXVwz7t0DPTuZZO9eXb5o7SaRwdrai4ECz3KPASReGbzCAx65jxLKZARQUcLJLJMiq8Wmzhw8Erx+b/q4CMKaxbxvi0/PAk8paGffUnxd4AdXU/IP6SED17TeKkkhXPokgGIDAQOuIzLQ+P3KzX9k4nyi9qri4YgX2DD1e7qQjEuWWLAWmZWmsnVPlAo8Fbn4QfXNGrHxFxqilTPkhwc+HbqJymJ9++PjW6/DmMrEDfILEY1CyDe6YNs/1dEjFaoKzhZVsvfDnKotM8JV/8OXkYaZZivnG6VKrONOv8HT44QKWGPAcz+GUWFVSRaLyB2NXTOif41Z2vGjzJrVu73yzBjodHa9amSVo/U6JHg+4jWOHXGoPkMOrvP68p4gqZ2OC8Qx3Y8le++dSLKSUjaawZD9W26uDBUd7Umyd3ciR8Q1molmZrKqHUTfqFgoIK23FbZvCi3rDmqqHgM/rS8f147RaCta08qQtmHIf6Oac1hW3voifFcZNSKTfNk0RO863tXJhJQmrFL9ndUQrK9ysnf3SfAndx/OU+Cy2ElhgF/TOE8ZhFg9OpW4sAt1uIpA58pH4DKeVh3aJUgNW7OCLHno7pbqt5Jm5102+bqj+RRqnQeN3nF8JzDvdA3XYt2Ar5pc/6oK6aCkyN/WXvgVX2PIG6p6j+osiZMmFf3S1aMy2Yb5//sC1J79fMID04JpzTD2AaIVVYZJvQPpup0mnzgbEYWapK3d1aNDs4EJX4D7g/4O/w7AST0Bdrpg798Z0JQ49fpO7SVhgjiEkMfTD3uqiOosFIaYRJ/3IL0gUhUc+/9fKFHXmlxvkTCuaxNMXnUVUaeqH9vRO1n8BeaS17fyTwmhIqsL6yBW6hZTZihkWdw5AF/dUCHjqjBZ4WJKu2OvS6cn5TXb8tpQMqZaycCn8SzshD1ENaenDcZbICTPnc9AioaxNiXixQW/Jy7cSzvA4jgJdaAumogY/YstzySY08F7GmNPoMDdE23Xgaa4iUFay6TlrxOPavQ2YuT/OuJPeZsRxYgin9ePRXS846XAlcQdoA3yDbvTgTNcil553M/7JK6/Kq15TUK7bcfTtF66os2iKunYgwOWEczIskdCHEvS26qjPLzW5Ux9bY6Y9aNiEgQsjpPJQTOmGiugjqvqwTP2WR5e9sLUw01xEpRBs5MI9diRKoPOwbPMeJPomfRrkSGZCLYQ4llsl437wn4pC8E+l+YIRFJ1XBnuft1wpjsI3fdyC+XrzLVoBvAH2C8EfPvdXbH0ft40FeSnvrlnieyqDM0G6isDx9osfdDf8ZHSwFqNh2ErQxzldCgIhHdkXVyQuixBmxdvUXmHuhQ9NdfAe1fDEN3R5H4iHaxaB9OrJDipBYnzqyOf6TioamcKsAOpiRVNj8RGQKRUrp+lThkI5paz2ns4kbgl7SwUOBfchKwZQ/E6ZaUb73BaHBI0+coF2oi8CjVya2jSdfQxf9UrBeMmRdfkQ3GXr2UgihBVCff//y9LOWd7ZNYxds2zG+Ia+JAa4FVHNMC243aHNnCXD8FU8falJMe3ftRwORrMwSR9F3LZuPVp/ubXTtnA5NfgN7s29mDmRtIc7CUIgEEqVgqiob+ivU35Lg4ggNeToX/lwZQewKKTBdGDsRw+P0xfZB7HY6pk0CEifcu9+WhoVwQUihwISSSip5JKO60Lo6E51IS2lrMmEwyrYEBwzHF+7aHKQ9It1oT0GJfOxY3ZH/q+4/H17WmRsr5yb7b76/aHG+Od5FOqNeQnCUGd3YpdgyLi9oiR3WIHReYvKmPDFi9taimxyQO1lPzA9f8VKtKkbKGpy/vQmdZ97/8a+WdRjlYL6BefgmAD6hjH9YLDHcy69+IBqtdsSrED3Uc20Z9oDuDM/ifVY79KdW4QS84pSlJ6VfCzEt7ErM+TW3sOJ6yElu3qRb+El7OE74lT9djgVnBd5oD3w/g3E/ImMlYcoNdOj7WYsZiGftuvHXNFL062VeX5m2Lbo0PngQmbgPuD/xn8EMpYmBQ5NiE3p61ejcVKwPfstgYH84VA3zKGZSoCKIzLJFOkmamcBdx79o2sxRS/SPe4AeOGiHOLAxxFs33XnK0ipksu0856GXUvTn1eSkkcSt/q6ErKeckzHMVDKa15oCx2sHAa+n0usQk2jTGnIcS8XTeoEBMo2xObh7/BegaVeosaX5w5F7PyQuBhDOZBqO5r0WYXIkIagJYqmBdS2h3cAN3zwDoKN3xh9rpkAny/vpcrIjNYINMfe1mVJ/f5h47f2xljiY1AbrmYTlfS2XtcVXA36oiPKWqnF1elbYs3JsNq0j14xYlRq9W7Pq1sju4c3vs4jVfZr2MP+DXOetW7DGRXXFDgHg9ZQpPAvlDHC5Wx+pWpGpS5C0w0s+ZSkQT3iARImWjlw2Itf+cXjauRgMeiQqhWcCOC+dpIyQMAR9pnpXGaXEsftNdutmgJr3AQNlwB92Xr8S2ITu5bhxdOUtzCswxmvEHTcqLL06tK0GP8wWw3fE5eQtMyxqLV/hNiX2ApO+V3KDPKCsy9vsTji7J7gM+FnuGs3ld7Wi+Ft9iUcbkBQ+Bov3PwFUGffExsZ3a2TSpvcJwop8IGQgd/+oTfQVNvMFk2eVVzJ1mMXrkJdvfVaDzUsiK0lXlXH3Z4CLKiKj3b1MlwNb9mgX52T2Wgp4TZ7/Hi2Sw228liPlqUDLzTYmTY69YmIVIi+s9bQHMk6eLd9ybEWc15dlR6+ca6cCec2KFctHLwtfoRHFDGg/robumXkvt/jXKFC9pAw/gMIF63az8QdZqM+yJ3hxrJnmI/sk8h34ThKF+3NQrBgGHuJRgY3wk9DrDQdkFOlCzWBSkzNnOPRF66wUacbKBAHnM6dhvnBfMzFFYLcTkWXrKyHMiKTr7svhbZwP/Py0yjFOZ0sbOZfzFUf/SaL2Fyg+YorxxKlujYmi92gNeDq39c6cJybHA1BLP3jUqon6XR4qgYoPYJY+hd1gBXrPl/Ne8oOCEWEup5orXvzfKn5Yt+NWQ+OQaoxQpdmrNZmNzspByce6ePrLSWRDbFqRmP33q6Io5TladCtsN8cwm4jSt1MmbCSpyuHXLkJPZA7NPBRTYDo3yOrxido+twOXMV8JZFeBYMiH21FrFp4+8xMDhIWqRRR2Lldb/G6lvsxOW62JsDm9TAo9DJJfown2fcK512rF17OliUWAHMgqJd41iRCHYQCnhHFBCPIIriod7jPXbd58R14wHXaKTDsMp3exW5MeimOaFOhYaPD+ncm2NhOx6Lp852NFjsogKg9ta6/IUm3KN8ZsyXTffdXljKl702+H6XPeLZo0O3gQnXgPuD/hL9DsR003o5fWk8XQRv3gXlk9WJ9rVkOt+e6zEYQjM8xFQGgP6laILM7KQ6+E9LV3ztPZBzgYLEO12l/FNU9VYkdUIddTgXMFDqRaanmc4OqTMUWMo+3J3qhMDjnhltzqbOfRsKyWlI5AQH43hbYNTlaVHxXD980Zb0ugRvJzmZhXhXMsVCmSROflJtQFAXRNDYpmju4Nzgn8EegdC9P7PXtUS6QvoG2uFbLZVfaID3Qz8B91ztq1Xbx40gcZgcNRQ8e9q2Mv5X+L4muSp7y2plIjoNfLro7iSsfXLaIJVItAmXJJbCs6QxkzdHUOoO1jls91TJpZ8wqcmgkvRkiZbuDqCS2CehFpwtMM6DNV6gDjVtPaL7bSJNOZMBzPtHcbDUPP1RTb76FOdnaDmoC4atm53o4BybbY3JI7/b7YMDi0wl063loIrZw2cVjVcYCKfW+fPq39F1XFscJBthGTqWcFrgGgfoXNDK9b/S1z894n3joATsL7UOHtzNpMt6XXZzsdXftc2iILu2o5/Ty4KKap7C9ybRExf00Tvp8ufmvQPBYytA4CyB7zLMyi6CgaCeO45a+sXgxDbG0iON3ncoc5Dsp+dr9p8KRurzyk/VYi8ePQFV5Nn6bnUBMSjuHXWHEbQzVcSjcwm+ANoFpRNnWSF1yN68OEfEDIgsAKI/7BsZkVvd/vPxACUEIqjkYuynCfoO5zfRC7n6Krb2tcFa02Itac9iI9kskOzkxioDEAym878NjBo7l96dveycuP8Rq76UtRTrcb25qGMoWO6q4LOR+SRDHJ/Y+RvjbsD4iAE1LmdVKMB2yHHZdaHplP2y837zAV/eG1RwRZdZwPuonc96U39tIBiEMzEJCkysNVS2U7nVnsIEJaS0zWLZy16PeozHuy67jrot7Z6kpkmGf9g3FfIfYw8k6oWXlUb5x7Zcj7IjOF54TI/N6bpknicJYSCNAdnntjt039M4Wg2+e49sBTe+ZF9SxyeMR2hZ73RPVEfc3em/ZCpl8UZ4I6H8Gph2P8qQdxFAv/8XtO8pWAtaYuGw5UrK0swEKozKXASoZOqp1xL5NfBr6wxAPABMI9xmSlvJkhtHd1IcCTrmJ4Dsx9WVH6U6s6i1h8D8oOHJ4kQj0Akoduqox5oJ2zrMt7mNlp7yw91NmkvZCXQppii2fFhPkj0eeXZI+ENUai1talAP8I3slxVjJI+/RtWM9EnMOjU76tAV8QtDVWI1R8yi3HdJc/Y7CAB37p9do0PVgQoTgPuD/Q78GsxdWnckTQF3E+V9LlfxwSZ2/WqUe9x4nNiPQpmZ7yd6KmlD+FcA9+gBZrc7OONIzzWpTqENFa86YA9M6d0aU9z5qn1NY/6asTdt+SoBR8WFm59n8zs3OpibUNraZgVVwGoaDAxWnGl7fXAoaDV3Y0wk1UvJLmvTTK5TXtWHVvvcCW9iZk85UI9xHBZxP1ZqGlLFC/lLaRZNMFnG39U5AFlQo4qZBSG31KY0AWBVbnBGVj0d54k0mQ095S0yyVY2tZEovxGJIyjqLDfIsB4TWdilD1PbaOfTe41UVH/KeYTttdOl1wfDgu7RGAUc6FYz+O7RR9HpY5NWNGE6M1kvgK8ocnGHmqdWYE1mdmaxjK2yirVjccjjKeDv4RiUKBzYEhS3M6PZiNITNpTSrT3d/o550nLbadUBwaLiWtsDmE9KVygUq5qU00BOAx/U/hEq2iphHOY9M+JxYm6Bq9oux2Qx8b+q1zgH9f6qPaFCZYM4ksciRSAT8d0d+JNu0jBsJShBcXWl+0ZgaHNrVZxIeao7gY8BLViRDCCV0sIvZ3XVGU/998HG5SzyjZjH7jF8D75Fl9rFbbKldeaN9uuNEpD/l6i3nQPsiXASe0mj7WNGFn1RQmT9r0WTN4MJyKqDdsxAQJM8t46m0VVDUlcduq7rxI8J3mys1BvosTtieLLU5A3QVylRuL3cQcEMHMZlYvp1NJ2A4sSDyA2n3zeGdWeQ2mrdRmpS711xZpYiYmtzKhmCjceKLjhTmxPB0HgYQk3RQe3pEkJheuQveHmjeN67Z3dBGx5RQm32euzvi7erHfObZgKoc7AjNVC5XMVZYXcdizXa4YOQ/fhDKUZFFuIdOzGVP11GF5i1HLkfvmG/vxJV6C3tQy9r0OugESf+V/ffuZklB2ine8NvV388AU05padINpLLYRwv/BoL+ktH5efwxwp9zNddbSLxeifCswZ4xVnHltAFQoryaDgN3HLOI3mGy01Ef9gfQ8waO7AFq3KnM538RgG3g+lp3n5mET2D1aIH/oZcQuwj/oMnn3rFf4MeqYSa9tu/iP9Vl/Ip/hpKU3p+I80zG5W4lrNWB/1hnC2HSVE9zGkSYyJeSFJjIdzicT6UA6ZoeEYMzBhBteigP39z7F9U5eN77z2XbwEV/V3U/RXpi0dyFBEtimtC45bCNdStuBnk2fN8FGuBg8g9PAyTqFNFTP1wGhNYqP0kX9/s9hdZDE4CkC5sZTY8sVjymAE3ep4DkhMTXkyhvfvqV8K6jeLswjXHj7OWOv1rKPkUqzXoD7r1o0PYgQpPgPuD/Q7/D9HHt24EDD36Z4mlSKUEkDDqzJbjju6i6Cw3xwTPNLFsLCIuyI5Wan6cpL+Qf64dT3YTo2/4PN1BFV/y3kP7Z8ne0skhMsQfjRKATDyst46zXI09pLAr87/3sZKinmwYlKSaNRoTmzWDA43prcnnI8hEnbr1IR81t2blQvLdWe8HKNlM/0XyBCc8Cva08hbIwmGnoyEfjojq+JOcfXuT3pFptCSj1jiJ6Wzf3SwuKmljbuGlG2154t1N0iwF+Tc1Crfs67VJIV2Xaqr+w9vEfDZVrQaG63/gxAp4EAHZ2hUsl0ibOLnfZWB/89p030GXhafCI2txzVJIPiYOk8xcTiEUWqxJCGoFI1tQ8LGyh4aDVwLAb+f00kxeIkB5FMuzzqeyJ1ALclgcGCeRTwMYvaPlyRoO+dIVsPxMoyj1bKMTUPjxl2mNOtX22gZddRrmQRnevvjJK0kMayShpFCSJgdlrdwsaRRkgmZHuLPKnQ4RMNecdcGT1qjI02225xhlKm08HHb/vFWl5ChnxKb/V4EaJDo/O1K4MTnBMT4Yb0Ch2A3Y5XT9stQ1w/GF2OM/NpoaqVACkCUCLvK5nqXHACTfK8qgaYK0mj4OUpjYwjTVt5ehMnyTYD1Htk9PkmNk74LNNcrkRCEqPCEyVRJeX3ANA+thy3c8m32cWvCWngwOwVgoJcSt/1eJVCWozOJ3DQPFZmfV0fHrdoIv3vxdQBgPqrZzL/9FCcDgA85Ocfux0+9QGOnhTeByGC9zrxeYlcRH55E9A0Q737mFts3HoEz2jwZkpeSQhQSZo+JaDqZFfSiejWvlIPZSR5Sf+5bG+9UAHX2IM6u3IXhvE3BOtEvS2cGieiGfWsXwPAYSoX+hi76RXqUb/z1XQeHa9eAqFcurmAZAFWZjUjiEcUFVEseKq9k6vsPn1qwwuFjEZiM4+Hxf3Q3B4R71ogNQhzEGmoTHRs6lokANiRtxuEi9ZsD1FjXsqVZoaaJHR03VC/EHeNafHCnvc9FR2JgwfTz3W+GL+4yoKOjrWjot1U+/0BzHXAxdAykF/OcwCYCy7DMSy42mf+0xVOCN7Ad2DMqfGi1OTFAESE/rj2XVhkvSc/PREJvXN3/gydBx1FkoSx4YNPm8z9GNJRs3IhTQZhAoYdwOZawjO3uRgnrLFRIPbCGtbv8I4pK2RDSJYntYk8LQvj62azmxWOr7JJYlEoh1TZAx1kw99BOgNwMupzKhBqQLuVxXdCaS4HnVqcrSoUZAowq0349H5iaEvOr+WDcgwZcK5/WdagAUyE0oaH78o0OqgQqLgPuD/Q/8DtDYgCS+rviHo4fGljLDBYSjcLeJFxr2JBLLiYWI5h/owTGb2Jp3EHFOdr88+Ek9H6njy8SQr+TWwzTYQZ9RnNhgvT6YbOPZIp2Wrl/4EanR0Dfdq2sWKTW22vD+zl5/KdhlSVF1bvRv150dVUkMcJkq0GtUemS0HRBkV49LKqDa5v3C2gJw09ZCwT5xKu1yhXOM3S4j2iNTRI+QKsJ5J7ZW7FEA8SyeAmAKDQT0m22XJzWQDUHqqQLSy0FUs/k6+7LQVPjxXN7nICa91Pmz+Ux6P2wytUsVwVsKrl4d2BxqvNJrVeJPuf8TpSo/s9vFICFdYFS49CIyGLg3GKyLxcb8bsGJhSSO19DYHA21ZQO3IFYCm0XcMz+9HlbH/hKCjYW8VWb1IcL3/V92g1DElDxlHpB7QqPy7v/ll6CTd1IEjKxU8HqwchFcKY/hLglpBFrGcj4G2hrEAQEAUQeuk08Ujpb8xToRJnqMs+ijjX0/e3/qBlxRNuEugDCECj0FgZNZZqo47Id9rknJ3imAdhFV+22Hs0hEa6lMMj+M0psneUKZZkzlRqWv/moU9rSjEe7VukmJVZ7N06jp7/wNzQp/kUIG1AONipEEkTeaLQpMQAta9uBOxoYu/LFuXvpXn9MO/r5Wr+U/Ut7hmh+4VXxy4WTN/WIR64jik6BXctsZ4MV+e4H2/qL5kWoLxxduRZLt3xKQZ4yJ2PXWShjaupn4mRaq0Lo7ZOWvwDFo77p1YOBC/7J7XkYSL1BYvdVEuFk923c7f8d/BGWihujFu6WIhWmLYCV7ZhRhxdFhqpQvUui1t0VtNZYm0kxNAeYsuMLr9IEMXzPlS1XLaLYyr/1lVHWFBJotnGjdEL4XcoN5S1odNu9Xmxwxn6oJAmTox/hWi93yotnTNesWAlgERMRbt4ZHQlk84buDZn5FKJz4eL+IKLmZlY04OJj3TgJS09L7usF+UlIeIiqgMfBKPa5fDT3Hk4t5HprgvP6l842+Bn+kZ8CJpRBAlfcWN9BXKuCeLaQQBHfE6NwUWwKAbCYl3Uh7iO0xe0dXx7bi8WEto98ZYfsRifT81zRiq9ZDEE4tVVZri8ATPswi/FBSacD4tOFWvZ3KZm/4lFuNNftOTat21V9cr7YfyBpDkXin12SDn4o3u45wmJT5HzyvVqHmGLQM7WLfuJ5Zr7AIKEk15QzaCVw2H05u6PCLyMtTu++zDlcEYi+UpTRT5d9/7QajQ4uBCseA+4P+C/0M5akEYoMm0jrpQC3MV8G8dVGXIFMXzEtQeXW2NLFiH0N4Q/tdWqBKyhkEr+vuyrKcA4GOaxBasH+rI8C/bGychgeHqy9Y1akLKsUZiZvxfNaNAWGVMLLQEv24yvZyJCsQg95B+kqCOpUyDY1iLU1bZL56ufvpxLP8I63TjmuYzZMYPUFyDO/L9qQQpCuIxl/GGwiVaDWFWJKPjGjuMRVvlpx+GDiEonpE6SyTCE3nhf+QkB5jf/zM5YM3BTczlDD4gMA4ubSfRzZur9UDk1+VoLFdZB4YdYQeuPS3ENUnkKtkXCcfsi9xotfbDk/1j+2fviQKXsNSWPyv3lGu/GFKpawY4ca8X5jEGYiMeRxemFq8UW5SX+LMQQa5A+aMeU2aUW+n8U3eqrCtCeAnrIkzn+y4OmD1IqaZdrJ81ki+4/YvHO9M5nTcnFWrVVFbbiW86uA0ljFyN4zChmXf9L21uurlBvo5JPu2xSXPA3OYN0YuJxWzs0P64pKOVmc3SHZVf+lNzN+Jhk+QfZLOymk4ApKsOTna670GV8He4kG0H9sPJWoEn6ZwIA+9VTEYjo4KL/MkPWnNfeFreSkrp2j+wMalwGz0RNz1OPDPQLsw6WBB/KyfuDaGYNOW1ShCEeW86oYqC4xeqraFw8ty/ziBHeYhoQKjQF65yNJLuiQfRRMySqvfnMhGPAHP6xR3O1zIWGdt8E7GTglTd4oq7xig2QWjHcTrjd6BMvVA0RNSryZFcAS9xq2ERjTr/do9N6XAMegLgLIIfOCbH0l4qfAWfC7BFIZEJQXh+0kg9f2K7hRczzfNZGPHhoeX95wd3FU3ffgL6xDj2vo4WqzaMb+wCG+rShY24ShzgOErUlnX0R2qVQcDCMhqThYci4A8xmFs+73uUZn+1OFffrjKIWaRjmnXEUVy+OGmxHD03zg/nQnGYWIRCqzySuSThyX9i7JKpApGloHtZLWl05ImjptyD7KMPTvVgABoZQdMQa8dtZuKc5bgRsR0PQ6qHMfjKMeT1pr5EgAI/8kGNq3vizd+WxEItj4xdvPiN+FlG4A34goH7ns82QvJuLGILLM87WZkQYubjz61NTfUECKEc2oaQAaV1CzB3zdz98RqXF/KChkVHzct2u4ifrnh5Eay7Rs7c7UW/LOoGot06v1wAPhM1OiKdxMpBLnMVkgwlCvtu6UBo0QmgQsDgPuD/yj8Ecqa4EeC1FJIgUXyIPbvi2RsDqqnOsurh8MUPjPPDYNXeMBM7SVKiwnrFh+7RCpBz44EqhstWIES0h5bxUvz9+00W25Dnz1SbP9cDEm3JPGwx5XbNrK+Zdo1LX0dlrjnfhhz5Dp/PvnzxYCM2xbB0ve2SInJI168b7G7A9c6fYNlX9Qj2ISG0fjDNTHdLPKrcMh0b5vX0xNiSl2prvzmG7+GGQi4bAjP6JK2XjD7IYu9T3lFxf5tFwXBWmHq6FdptHHyv02fjC+wqZdw8jAspELk1JvVJe+SKylRzKlleQVaTK7mp+1k0LEQuZ9wPTasNXq/TthJCSqu3WDjGSyYOT61lDcPbPcvn1lSC0ClT9bRCXmunOn01wh2ge0s+IaTVDegXRR6BbafX1V5jPsiOcfjtIZCMdJnKzBb3+BXG1WbOJxqZrlsLMSsqTpHVcfF/+VlycCy5njmi6cl01lcemsJ9NkfOY/JcrkWl4G4NZJttaoDV81V5zCSu0vJTuRBEedJ7/5FAVInyJC+CzMzNoIxUnH4NWSM4kDqY5EJQvPCzQdpJ8aYtDfR7SCYEy9XHXRmYBQEAyK/HY+fFbUdm9WULM23Z0u7cm3qfwPyhkCzfn+XmGGe7J4Prqx8Rhi7OAupMLIrVcGro4Wyn7d3QU2s8mER0Bwm9nNTtJ6VZ7QwgI/UYgWr9utaJnxpMkmLAIceslBrkCIyONBZzY2Frt/4mHPjKcZSUbpUMauVGsBVvMM9AFY0L4td/d9qvPaW+zur80fAB8R3BCtTFkJI4bGpiGk/VOlV8x3xlGLiAFpSxCajSkMKV+u+kk2W2vfY8zj7QX21bexH60waGc5iVIt6OZ6VqZAdKLqlWPTugIRRMg0RBK5qRO5Z8pOqoZ64hYxBtRqgYWc9guMzMtvF7i+CBLH+fq4BDpFYYll8P9TPaREKf0DG16fl3zcNhrWNL/sizPzMls7i9EJILhB29sDi7K2o+Y8JbN6IqstewelgzYBmInH0LvcY/Pj8TwSl/iFMv8aToZTUumFNpUJdLJLRLAE79PhECWkvKIjl3eH41onJfM8expJHNa0qXJSex5FG9AUg9q8Yy5apnf8iNpqovnM7jM3KGgb7nvK5VSzxkc6qCfBjU9FKXVpt/IPOfehqkzvQ5Yefs80wz+CvLhbmC1x0xk/RJR63XZp1hQ8Aq7Ah2zTikMGAk3/wni8d6n9XVCtmhiWBQs56LwDtwhNG2N8r1DuRWFKmBv6SslCxL0Dg2tXUhzOQLFbQlbWwjY6UZ0O/J2QLC/p4GK6SI8EmuutRvPXcLHdHpaGP9Niz/KLZKdtYQN0nTstk9+rMRI9VA57QBz7b6GkGOsUuMbNrzVNGSVc6AFjrytdyalD90/ZnnvL7dBp8gUr5o0PDgQs/gPuD/BD/EMNR0PY5NgIvnFTOz1FiRvpH3R7dthl8M6KZ9JTTilhulhXmJDt1QZN5Sui3Jl8om2J0Dk7Omma/tPj1iy8zeOKjShvVnLzKtrdAEmdnSIbtIsVzG62B62Cl/nRp8MRmN+Dr1+Cl6lEOaEjLxIxQ06uH2QrTmDAQPRV5Ljkprgmat6g9gYn6gU60ud4JG49AyjhjhkUle6N/ynDviujDzmjx/POz3KsKH5IM6zkrnPGlE9j4ZRZ495njDtOV1E/cAzBVevZEJ4vfa6Zo+XCkIiXjuzIz9FFAxVujkNBNbM4fZfCR+quATTVWa8fRPU6ObaL6z/0J9zgzxbBsSmUUvxsTfQqUIuvaKjFjrtKIB5WcKTqM6H5k5cFPENauSvha81LXl5GlFdzrT+AHT9lqidu2ioKBfPiA83cZffrBFx1KnrMGncEC4/KJjCNTWgenEfaE2wz0uUYqPJrlxaxzvWeu9RX/BO3EVPk3F5j+NUT+RtbA3Uoxp9t+PrPYRqckuZfNRi1BLhaB8ZbGC5p33z8LW9SQRQkbhFd4ofJmiKEd1cuSgWnjpnFOubEGj6oAPA51fuMkPg9Uaf1AhcdtWU3in28R3uu/1wYehir450ByNAfJqTz6JPb1mQzRu6sP2gRFc6GHZHVzB0LV8A8P5uLLKZAIqXfoMM3dTouDmXSJEVe7wVZ3Qj3zMsHckTkAdP/vakn6mwu6XP8j1K7bJ3Mbxl6wkobUn47wiSNWQfH234dn/sXxYW/JGfTPySiVYS2QqUXdwRngoBRUcl08RiTXa61pMnMfAvcrhdE+URd3vEtjpn2ctIUEdFz/JJKdm6rTcV42I1Q/vj38wGg0Podj4ZYoQuc5dFPkyx1EFIGu/1UPxKX0hYKDef5zxLklmMYSwhi+MIQI9ZZzd1HfT+8eFa8Zs6iT6NjuckTAyMsWrmtlPbx/WjNBPg89t0zRPhVGwXmvd2fDWczNIUnTtOMpe3J8Ackhw/IDC5YufybziIjnAbEb5Lkoc9cUKEK0vwQTSA2xHsem/LX2lk3W8vkxg+6yZbVDx5v19Hv+RHUQ2rRQuiSqmpiDG4JvOGHUgO9JFfm4ItRx9/J5/9xQjquafglMcibo8r07k1fvRCdKfgkji2BNAYwoMsRrTOZyFW9bRZ2nuoPq6UxgUKnZgme++39RoyBhzZXZ+yKLSQtZb19Pq8Xjy2+nWYT8hjoyXqE78A6+CwMGXOui1VNcvutS+I2EYY7+Y6/i3q3RWeADUgE9+658X1L7o0PUgQt7gPuD/hP/EINmUHhJOqek5YIYrPpF1sOFmbVCiTRHWoCQUDhkn4nDybexu/UmuEM5cNwc2/wZ4gmaoN8fD7aWoGK2ceEjcNGUP3P8r74yO9SNRVZYm24T/7/Yoia93EdqvDV+y2Rfqn+QX73A2skG0m75QWEjVTXtmMFsvO+Oi8cHYP8MQ7hBY0filPcwc/Bq0tPOHJyXT78t2rz62QZyUyRN5SWxXox3sNtxSwyjXl+o4t12nqUR4ByC+FLbxTwIdCq2WwKZYsNH2VLBKYh0hcL3m0rVB7JeIkXEShr4fmgCNAyEokDu5WUyHveUDg6/Joh30ckbQnJ3QDA5I+Zp8wEFpLoLS+Pr9lyAb526nf5Tn2+0L/VOF9+jaiW5W8oJ+6zAWkPYVrnKTbaCvQhUHRTs8hrPqVSPeWvQgfMwGIv3zXjGSQHDTsw1phW2isFVMMBBSAnyAJ+AjWTRzG3X4IQmNhIpv4iSw/a5OBfHBhDSgsGcE7nIHxMQPM9M58q5hGU4LrcLWEHTQI+YC3b+GhO70XA+f9kWSLalw3Ezcee5Z6V6KXPT/5iwppIr+aQmGv92vaaMX+lMN59btLoxZ+31JLp7ZxbIYUgl2/5I7JG7I2ak00fvyH6e8QiYhJjRTi5coRGhpUoMJpw/aCSzuYXNGWET/eJK1Lch7cJOFHGc1alxK0fO0E5oG1aZEsNgGahhjLZUg54wPPxyIbfMqwyyIDf+QfMvIO0RV7jTqhrwq6/c6T4O9PZlBEJMJdq1qAiHjt7s1oL8E/S0IPburvt7mlQDvOockpL1ak9dpozsqYP4R5SAoQ884T3j3oqQtstdKv9Q5spuTrO7nz81cHF2Tnp/vrYHuNfHfN87tf7AHs9dHz70RGuNZNMe8SEaC5Ac0AriAHi62sCgFNC1UcpX2gSnL7mOxbXAXUp+d5pTncFf1l3CQSdwIrNd/PG/Bmt1MKdKcyQHi0g5jXpj8uIfjnidcezwFqdoHDE1PwFVULCyU8vJ8IdSVP47xiz+pO7n8aRLOQRAPJOtTWtUW1jc9oHqAVP9m/efQ6/mg0CsCvt/RiCruETSF3LQssjD0ZyOOgXV8jAnASwz9RYyDrl35OEKpeepLSEXNpV94VTI8A7zsyygQAzzNa9glB1+aZu84kz101n5KrqZPbrQeHa58FQ6gVFkGRYZnzNuxj3dSF7P0mSeWvAZjzkNAr276wq/gAFzpvqCTRL9p09yYSfyPGIHtGKjgrpOw6AxcvMIXsHeuepr6jNgjTyUYn9meFLRJrrLnry22pMhN/Gotv6jQ7+BC7eA+4P8EfwRw+jGkXseYZLqHjUxIFonhZ3TSnvqZVl18Yj+XYSo48O1hIzGBo4FqoSeVum8fsY,,,,,,,,,,,,,,,,
