success,timeout,failed_images,failed_audio,failed_video,trial_type,trial_index,time_elapsed,internal_node_id,subject,audio_id,rt,device_id,view_history,stimulus,response,estimated_stimulus_onset
TRUE,FALSE,[],[],[],preload,0,2942,0.0-0.0,lj94c89d5zp0f6d,lj94c89d5zp0f6d-2024-02-16-03-37-54,,,,,,
TRUE,,,,,fullscreen,1,5674,0.0-1.0,lj94c89d5zp0f6d,lj94c89d5zp0f6d-2024-02-16-03-37-54,1728,,,,,
,,,,,initialize-microphone,2,12621,0.0-2.0,lj94c89d5zp0f6d,lj94c89d5zp0f6d-2024-02-16-03-37-54,,c8d63261c5e6c9e25ecec22c7e67445eeb095f45c0c82adb9ad5f40bdd8738a9,,,,
,,,,,instructions,3,18757,0.0-3.0,lj94c89d5zp0f6d,lj94c89d5zp0f6d-2024-02-16-03-37-54,6135,,"[{""page_index"":0,""viewing_time"":1318},{""page_index"":1,""viewing_time"":4817}]",,,
,,,,,image-button-response,4,23264,0.0-4.0-0.0,lj94c89d5zp0f6d,lj94c89d5zp0f6d-2024-02-16-03-37-54,null,,,images/schemes/movie_scheme/movie_1.png,null,
,,,,,image-button-response,5,25967,0.0-4.0-1.0,lj94c89d5zp0f6d,lj94c89d5zp0f6d-2024-02-16-03-37-54,null,,,images/schemes/movie_scheme/movie_1.png,null,
,,,,,image-button-response,6,27774,0.0-4.0-2.0,lj94c89d5zp0f6d,lj94c89d5zp0f6d-2024-02-16-03-37-54,null,,,[],null,
,,,,,image-button-response,7,32279,0.0-4.0-0.1,lj94c89d5zp0f6d,lj94c89d5zp0f6d-2024-02-16-03-37-54,null,,,images/schemes/movie_scheme/movie_2.png,null,
,,,,,image-button-response,8,33361,0.0-4.0-1.1,lj94c89d5zp0f6d,lj94c89d5zp0f6d-2024-02-16-03-37-54,1080,,,images/schemes/movie_scheme/movie_2.png,0,
,,,,,image-button-response,9,35166,0.0-4.0-2.1,lj94c89d5zp0f6d,lj94c89d5zp0f6d-2024-02-16-03-37-54,null,,,[],null,
,,,,,image-button-response,10,39671,0.0-4.0-0.2,lj94c89d5zp0f6d,lj94c89d5zp0f6d-2024-02-16-03-37-54,null,,,images/schemes/movie_scheme/movie_3.png,null,
,,,,,image-button-response,11,40892,0.0-4.0-1.2,lj94c89d5zp0f6d,lj94c89d5zp0f6d-2024-02-16-03-37-54,1220,,,images/schemes/movie_scheme/movie_3.png,0,
,,,,,image-button-response,12,42697,0.0-4.0-2.2,lj94c89d5zp0f6d,lj94c89d5zp0f6d-2024-02-16-03-37-54,null,,,[],null,
,,,,,image-button-response,13,47204,0.0-4.0-0.3,lj94c89d5zp0f6d,lj94c89d5zp0f6d-2024-02-16-03-37-54,null,,,images/schemes/movie_scheme/movie_4.png,null,
,,,,,image-button-response,14,48312,0.0-4.0-1.3,lj94c89d5zp0f6d,lj94c89d5zp0f6d-2024-02-16-03-37-54,1106,,,images/schemes/movie_scheme/movie_4.png,0,
,,,,,image-button-response,15,50118,0.0-4.0-2.3,lj94c89d5zp0f6d,lj94c89d5zp0f6d-2024-02-16-03-37-54,null,,,[],null,
,,,,,instructions,16,54525,0.0-5.0,lj94c89d5zp0f6d,lj94c89d5zp0f6d-2024-02-16-03-37-54,4407,,"[{""page_index"":0,""viewing_time"":3373},{""page_index"":1,""viewing_time"":1033}]",,,
,,,,,html-audio-response,17,101892,0.0-6.0,lj94c89d5zp0f6d,lj94c89d5zp0f6d-2024-02-16-03-37-54,8321,,,"<span style=""color: red; font-size: 24px""> NOW RECORDING</span>
        <p>Please say out loud the list of the actions you saw. The actions can be said in any order.</p>",GkXfo59ChoEBQveBAULygQRC84EIQoKEd2VibUKHgQRChYECGFOAZwH/////////FUmpZpkq17GDD0JATYCGQ2hyb21lV0GGQ2hyb21lFlSua7+uvdeBAXPFh32an/4tXb+DgQKGhkFfT1BVU2Oik09wdXNIZWFkAQEAAIC7AAAAAADhjbWERzuAAJ+BAWJkgSAfQ7Z1Af/////////ngQCjRLSBAACA+4P/Mv8Je7hHcsGUcouTTPHiZIWLXip6LDKkW4fpKEkwnsUKqtSA1x1HQW98pwsmGE9tcNlHGb9pSAghl4+J2J7Cpbahw/Jg7psUojciJkblwzg1iP3leZaYr5rBy8Lba+x+dnx2aUTUO8CDxORwoO8QI+tEgfxiuaHsRGZIRdx/lr3IHREw+3ryERWog48ZuQ0M20Wn3ZhxfQki/14qaANs0i/NzRdhqXlqt3ajUDmxi2fCEH7ezNytdrHw2QBbEPtoIWNYLz56c45ve8r8eAAAAAAAAAAAAACbsvuZjCxJHfDVxm5ftHnVYEnL+H2WBmDKaZdtsmLsvcuWeH5m7VTWoH4VHEZTgBsjzFJn2mTDQjsuYW/gxwLjywHzZtJpR6L9xEKupcvvJ0ALqUOYf6+yv2WOWOzq2Ml4kcgmhJiIpBZhS+NjLTXb7f4eILpp0PfFZbhLk3iOoU8fHZAjSbn3crVyxzjnPXYSjqVcTkOd+7sDPVrCYKF/DfMqLlm054rz1ENLxDa9SqqORVJlTJEEV+GhDGZmTU3tC3YVKt4dkHoX2ARQc0kFFPi+rJRjJ6+DlJqXOWleElj4HN8P/PlTSUNivKJYB+kaeqJTxEz/BJIs/dWZL9dCQyY611a0zYO+YWM22xko24LWlrICZfs1KjlAIzrZteJzFbYgPXj9IBknxdQWuw0/Zx+9px1ffpaNga7nL0bKj68GucVrltZ/AwEM9DTOruQ2p/EQ93aSJh8V8hpxCnVcRQgs9ETyPlbvEnA1ZrQlEGy1uMurOra9+EE+Gx2U8wSoPTgoQglb5jDQedveAYffK2T0yCkq1lRJS299bjXc4SzadFRcd4letnErRLeby0paD5eV29HpzkigfZCWEcPVScdQ77gkc3BAPichjgroA5Oe5XNTgzycwgwLqLctc38j48Au8zfuVNBscSOcwLt9pu6Z4i7u+FMil+UjFjH+bBeVRD/0ehsJQ80O9ncdQrSm2bAjMex+TpPv3KWx1qTLPP3H1F0tDzlWYdcFxslHehMOHINvzoU8hZL6ZOJJ0nUQ6WiHWEJU2IvylCjdYqe8jr/bUQPhb1NoqBYkk2toQrmp+qaKHOObdSWlf9heway1CURmwNXGDcbMB7jms+5EREHok0WLnpWGdf1HhFeo+EOmbRdZCbEKkNYyHV/foYUvthaoqV/P8w1U9uGNUx52o27hL6dGoZRCL6ZE1UAsJGBLZ8W/31o9+9BnrFEYeVyj84iKbBkEY/Clum18OL3gNLXB7WAvoU12ea7o7v7gn1/aab8Xl0WAwUdezo+SOJA5a2BYfPr2Aa3X3cVqOpv+FJq1+Wb3wbP45m4RsAz57EE3QHDSKFI2zGMSURGX2fD0iJuOk4CI0kUaXaJaN67SEeQpGPImhPvCheKQmPJrit7AZxrLkz9oc5Kpoud7rg7tV12nE1K+bE5R2jmuqVj7zbhlBW0++XU7ul8ZWy8u2iFmqRGW+e93V8yRRIoZHygZ+/TCJlYaMwaSJUPod3t8GrfMcZajC4+kOdWFLinmh7EGhyvzGBwHLpK3rxwaoIn7AuIFnswAoTzl5lwt8g8StmAXwAcdo0NvgQA8gPuD/Ar/CD0QptS5qT/H4WS/SsDUA3MmhWNAjY8LBN2f6Q/ZPouK03EpoZGFKaGaFhztJCizw9rt7QXge+mtD6qz544K/EaB6A0vrJEN5tophGJHO+cG8XzfoK3Mmx/rfwOc0qGXbIBCHRrzYVUIs04Lbya5y7cFDq8BtHCkoXZot8IoRU1rO7yJpSkl6vvh6PA3bqCfvko35i4H512W7aQ4F8lyMZ7Wv+kqJvr+zw5e/udJvrT7mB8QY7VZsMun90/QXZ0RFPWDNNiHaMvUHOQP8t0iCk934Pmn8zWUJ63xD8i/0fn5LNdhQbuUklNsQCjwBAjjoS1VhGLRs7leiI088xszk5/eoa107uHhELR4tMACvapPkIUywYVTw4G5H45a33uVTNAjgoRADv7DYfV7z/peS4wqUB3kdhht8ky4+L9iVP4er7ojM32mO2mijSJT9hWN4ZTeWr3jjAslq9OBGKDSIGnr34YP+8nKXSwhOqGoCmAOLekAGdzm2m/zWgIWsRqZeKUZRimqUjxMz7QcRIgtdSTLrxpatr6ZUtkdS8BNKPkqfGDZ3buB3XvereM/lmwsFVzHMWqZKi5PhamXIlI2saNcx33n4Jvj8DCIRNqgiarhtDPJSVH53FrBHI4QMMJLg4Bf96G+alP9ob/zoS0ifjveeTr7zgDMvxuZkiej2imti7QHxbuYnobKu55oyEfMCsKM2PJOfLYxYYQVJGoFy8nFmPGMx/chuTqs5Wgutb3Mp5Aga5PJlAG0qLIJv23xlmpKeUQnKIXmT9l+A5a+G9z7ubMpcqq88ltydbZYRC6XNeHvvyR0ta1tUTrVAWIxnBgFRaF4cZns+LcLr6yAYYZibd1a8zTQ8N2h+XjfhtQ7xNjimxnE1NR9Xt7yp1EWAleHfc+owa5S+tZAeCaOsGmsgkv/r9TvjNBwbTAxwEWKRZRCxCKFaRyEQdl++IEnQbrZO5WxXaooRzrtKXmFgQ4MHOekbUTbZXhdvI+yE6O/+xt/3WRfIkjO27SSOnhs2QdN5Og7uaA8/KYSTB39v2k41m2hnY0R1NHLlGcBsXcEgDsJuydmLR8y1tYPgpe4BW/RvL3kZF2CjqnSOcMtOQMinbUt4v7qRzBUBRZUyPGAFZiLA+gkaPdLuw0Hb2OaGoPTf13So0N4gQB4gPuD/wn+ClrIlJz8V7y5LiwaLFTzpTeJowHEQPwNwndyIdsGjS6wLQFqdI98CMRzAI+BLYTVSWJl768dQuR2jn7jlaft0fiMkEu5vPX9CDgReBLLqZeksIpyn3iaN5ArCe5g8ryWHTukR/PuVi3tfqfxUvYPwqBRB/epHUWSa1/3ijChQfCFUKoa2H6nQxmvkSKl83rN7SBKMXkqVKlA+63HjpDkLEGF7/5h21tfM2QtGtzqbT5OzclUGTIQ6X/Z38kcImVl0GBAMT5QINI0Ju3OCNONnBU0rNC/4WnyXTQIH2zkjVQeg/1aNAE1DJPWEcF4/sxkdpUTiMfNU9s5j/sZQGRMwyLpRYyq73lKuCGkaP1r3DwEcGu+k0nV3BVz7I2G2Eu40RT/UlATe3EMD/I9E+yiJAAIuFZr5ajExkyWinGpSFC8VEFugSAKmuZ+ENRMdEU+L6VmrtUksP+96p2aQGygYhODacSWoZcQ03zpe99ijOAGgwSe1SkYCASdGegnuoQUO34OYQ52VHHRGeygQ8/5TQedRoOPvR1Uyuzo+kQlnlCk4VAmHXh2WdggSI1Afr0Hhcgb34fZh9Mi40N1WtlrDaRfXTYOcMAUNpG3XgWWzMgIJoCRbL0tR1Jc+DL3+Sjf6B7CQn5a8aKuotuDiEnxjIIAMVTLhbOwVBng4RdmPpIBoCcyklOhDQa1K85lI1cfzKFQFb6Zkp7YlTAO0Pdc+j7TqwXUsaXVWDIbu90S72QWzVw4K2hs0aATEcLkIDnFz0S7MMREMTzZ3j1sFH2JX502eIJCT4oGFubCOX2tZGC5szsfmIP1VoZe5V7BmFWz6La7ZQO5Ca0yyotmLBNxQR+TiCqKX7jICHx1ays3dAN/v0wr9ToauDriR3X+iEXwL49xil0JEhTtqmBD/KTSPqcFTsd3Xu7YxT0WZL1cujaQkU/qtFpsFBUAkCBBXAGp6vFixX4iDBEAvHN6C3e8PBlUE2mAtaaUAgkILK5oXNgU/Qm6HS8E02Het4JCAFPZx1FHtO3e0AEtZ5wP2+eTLhcWFxnV9c+QT3DBXe3Va2GvQObiS7oliwEIweWHbiY1rBc8VgNFgqeiZhIq15I/8LGMBNm+dtOtGB8CkRM0sQm9G15tPGANSBxnYpvtx4EmorzhGArxSeefa9gh4gzFo0ONgQC0gPuD/wr8CEFEqMrduor4UaBjS1L/kjYAd8tSbJIEsS5Pxz+rdcwPVJtf81nGk0SeOCsp3dDcj2awEnxzYOQVEWR4KA0iyYjp4n+UaGPvfa3rgUsoz/d7Zb9Gf5Edkz1wzQBQCz/gvuV0vTbB8LFtipNZIE4FMShdxyvxjFK598sQ9JPzP4YbLx+anflAZbF4oWPBosGrHoSmUiCbkKEoysnpQok/qDu6GmeoyHjjZN5unGaZYOKYFLhH8xN/PWK91lYe8q32hk+YPz4iHMyQvVpQgiXEw6y6h5v67ixNeUrBTluBqADWKhqwEEmL0W/aPyQvdIu5OMrLAfJ5sWuSw4lhmG/lJkmuxv+RhKsYLuO9MLKJ0uFTZcx0sHVVf/38z4MkAzaRjLMUOKFovclRlz/LYfUjuBRYe7MBBRKN0DkXUWMzYmL8mD75BhjtP3qrklfDuJICB/0vFU3llf6WzLQ6D6CuwIqPm3LcSrkAQcE7FmhKieerAwGoL0TBeV6cYmm4RYfuJEIDUJJcT+lMs5tzyMq94Mk2z+OkvBsSY3sDloiII2KQdCACEUrcsoMFpaNFJFBOvIRXcSyhmXKmHoIAUJfhQIlQxa7B+HdQLdZIpf7vZT/6+S04Kd47nbWTbTuqTOoK8DZw0v5ck4eWNDpcQrgoMq9Sn42lazTz0VFwk6I6Xzu+IT3xzCckbaaVPu6QLZNc9pRSOpAd4or17wf0ysZ8CvsZ0Jvh1tGTOoSWZw6JgVAnBZzL20LkU7uE4lmjmNtiI1CT6Fld3atG+zOtirGR67XW0nyVj/UgAc1jQLRBVbTZTi88BY8xGnt0iuNIVvlVMmq5GHcAMTxMO9fYGOXYxkcGAgbwnYEnrCPcwveDioTUkpdfKUTZkPGsQqOz8AzMcShCEq1aBhQn9pXP3p4APb0UK03aPda/cOdipLR+2ynn1LQ8IWnD0pjbHFOXI+l5Z1KlfiH6HxvpjsOOEQXSJa2VHPamC6z3iBjvdgLRMY6YA6ksH90XTi+dyqAjEHWLNSfROC4Xzd+fEi7d/vd0PgVzOZ6D9E686J0tWTFlrQqPrWUSQVuvqTYCCRC2RB2CuQMeUNd1tEQvoVoiP1Vw28ny92txVVvh/SEr1RGBzR4npGMLHE2RBPfhw2Y+pCYR3FUYwBZSnJ5h2UibhFbz6bBLw4MH4yuTMSNwWSGFumadV+CPo0PGgQDwgPsDP/5OpYx9ky+X/CBQ3rg8Od+rKpvQzexNAXtfNBI9EM5XT/KdWW+Vyn65Js7C9zWICslwa4xEdL7pWRVtn8EPg2j7d9oLMjNs8I1RcQxGxoZECzxcxKfieL12FSi8cylzsHrCcSbW9mTg7huzzS5KQc6RXIVDVrsM6Soj7Ma6dMZKfbNS76LjT4HIyjghlsdXXtH3prOLtOGrpADQ2Ydyl4xtxtC8Kigmq1aQdty4sZmc12sBp5/5pvYDtoL3Ada2HkmFexvjD3AKuY7SgbAgcU4C3QFwPDTEVFt1KJ9x5789o2MqpKHZLkT6FXRY5dzSmsTpeoJbFUZL+YcXa6hN5Dj5mQsCmCU/npilbtTLM31zRtVkKNEYf8AJQBuF1VGijmYSfdAR2DspMClnZ94o8zsLBpvnGxz3cFivM5HOTFNAEzh2zsgAhuLQ2nZNBtzxmcR77ojA9JZZLK/IEmcbIphFv3kXqSrIxE+EhaS1Ma1Tjn4+Y564bg43Xlmy2dhh2LYjulQe4f1f3gvn9vxoVjANBtiSmCKBn0poHcKGAzoUHZtszM6Vz55K8XuIkdnwaqXqdY7ODeLagRhHcyJ1oINCwQbjXYWzoMT738BY+owtK2vMhZO/eKhnuIjQMwSEm7uUN1+hZJZpo09mCMBa/2+safyKtHRq+LtW1Afp6mqYf1rmFrPVOMeFoR5aE/vZ/jeO6mhlgHekgd1SVt5BJZLrYrF2PeUBTTkGhg82WjMNPb+EXXaIMTS9X4zBFdRhfFo6y92PlWeuF9HIYeNUSJ1W/NuOHqSDN/1WJvItLkDhpQC4RWQ6MWx+h9T2zQJPPX2ydiOTiraKqn3l4C2uQVnbbKPJ/APq709uflzAb2cJOULmXMK7lg4qexpxpE0iiWDs5cDhF4NEVVpo0lCKB2Xo2hu9VT6aNkl6nIOzj5PwKp0YZnZSFOeOXoUf390GGN8yvjXJcjPFogG4MEwFpslghk8QK49kSTF33f6F0juTLLaRA0c7cmy/fvZwz1GEka2ifB0iictD8SxhCZ4OMwmP+cDBLiYaxf/65txA+iSAvrzSjG5WeV0j3vc1zlXZhtm7Vzn1p9w68Gzedi16ry5MVE/s8k9SpHPKqmxI+rLy+KW+NW8p3IpZ4II20r/edXDg/BTolS6yktIDhdsesyJtZ3P3dykxqpBuNuwnvoARyEr/9W2bLu3kbn24fZtxCBfF+IFcIUamZs89vRZF4eDITHkAc9UZzYCJG6lHZarSDy+1uD/ZTB2QX5pPjkr2o0PGgQEsgPsDWoJPk2h4FtN/vG/wHxNzGoqmI1jNuyJydsRpmB/ZjBSwYQ6RM68LuZ7DN0DH0511tz1eL8iiTvLEqbLJEGcb7yTCEoxgXcrHRLhYIeevRnCrPHHLUI7IkEw6ltERjkSDhNuAp0cfcGXU/TKdX7akYjjokTH1thHyzl9EJ5Ii+xxoOVlvszoClvWK4/eyFK7le0iVF6mOZXt4o4FEDu2rM1VbH6hj7mS/eFsluWkEdl5fm1shMm9HqGXoz2yHzCkeqoLjxAEf7TMwTOQmD4czo+u+sWfX7OVwU6HREP6VgMEGGn9fQLnNcHpmLPSabH94mAMb4IZE/iy54VN8pDJhiweQaHy2DoFWXKl10WXskZFivjveKa5wgcBNob3DSjWgMm5AB/7j67yLb0/EXezmws/jjeAygeetVx5qLOq0bXpQhq7eywS1VYrkQIzv5wU3OOUF/rxMJOcoqG7+mw5pHwn6WfESxuRBL6tTh5CfCP0k++1OVV/8zJraLQiOyumIBRC3Yqru9kAG1OiNAfdTllr4iNUj2AN1rsu0uqb86sbc7MUx5/ZnjBQwQ4sQO4irUJAmbb1Xy1bemx12Cg6xIh0TcxANWV0yUejiPn8+3julsK14TsCHu5AHCFcn+BUu4wT5tu9c/R+mbLnQJV5La2+EzeXRZ0ddRK5qK4qPjMYFNSzt7P8lF3p5YtjZTbad7dyv0h4N33RgMQqfvgF0+Gbp9PpHUJO5b/PGXEPQQyOte6dbI+xH96k0tH+BKYrZ9IA2/NmMYBstLMrtHmp+E9lDsAibGJfIjnIA7twIPULjEBM6S6nrAaI6TraTIU0hoAjdCXHp5HKOzMukVYCXTT+VeS0jlzDwaSI/VzR8MU/zw4DeeiyNKMjTajFqGCjjDMA9doJrnLOepLiPQh8RdR3PsxHMzOPXeoJQlrWdcDr8rgtktYjyIXyACFxXyYx5p0+NexFy4x/8nuzQRxSVcMp+0DJ4/U0breagvR4Ws1iJTovyEKCkJbJt4pa2lxLgTQEGVym0IWqwJ6HjjfNYiaZmHqJssFqSGsaT15vzUZ+f3EDfZxFGQebCPhJkdJTIyHAB4n1LpIYp8j54ytvx4jRLahnpbSjNe5wRHW2JPtT4Y+Vt7X0Xq4XHEiycSDGyjA0hac73Lb9vlaWeJazfD/pt0yp3xPHOi+vpIK5kIwG/GmwfRfpfmQT9mm8RXA3nhEnKGsn3zOX639pZTIAqaK5apkDcGipT56daR+eY38IbqefBUySXoad/w0OaBCRgo0PGgQFogPsDUiGehAgHuUL/tF4DnuUWP1+sNSW2jmqWfejDt3flbJoRpAm6YlDk7lbnPqrX3UXZAjKS79SuW+mzPbVyYF6Dbh7ZfqPWBYpwvUpwBmMj/0uS55kjrLzJ92vnu2GIYGAvwkaza4aDyhN31+59XDOhSNHlm0iYG7zTU4zL0eN/AKNCECbyDcu0HUZf24quKyJoGKHLS6+wJJdGziDX2RPSYKRu9YBbMhDoDi9zJ1TwZoAVw+0bC0M4sv2Sz4ENlJGe9stYWLRq5vYGq/YMPPKoR+xmPiQ0fA1/zKAroD20w5azERGl4I2XXamNRnUXvMTwqQhTYgWQhDkPuYFk2hohYKHbJMNKDrZlPpEtM0H21dLcC/AzlyHfQpwIWznawcd4F2uqoHfsM1vFFnTyole6bT87pnmOan83h//F95Ruw1hP9h1+TfXv3BoNKDBOvfJhgu2ufdrLc0wLspg5GR6vyBMLMHoLX1tqXAdY8qH0gfuLg7bV53ERJ3s7+xdWc3Fyqrl24zffVTMbeMd2ra8Cd2XIc+TdL5018UzMNHtanp42mRCLHCbW/YXrkwGLZbyHZ7U/l/nEDSjtZ85gyw5pSS7w4oSHtCnIO/mEEkt/XpBZagRTETnvWWlNxim7xaSFGdiWIT3U/DNLubtChJxaMuWPTIAZlBQL24Lt4MpMS4bppgsDp92+pEpZhmEq7/KX+HnNeidhCDRknz5QUEHi3pF82jlglh6R5gi2Be3DxNuMfi9TaMElMitfgvuJyqUu0jsJWgt8mn3Z3RgamgUEB8PboZdUof/nz35nVpS1R5eiH1Y8AYhBJT/C5PLhofBZSKydyCZ5MPJHt7hneunNEkBmRVt2kWJAoV9uJVR0YaYzkX4BSUm4fUwQvhlYl0VQgkvu6fRNw+PdLysVyw+SP6FpC+l654xhPJ8M3O7szWe0JxwHWQbDcYcs3+C3UpBaCTSNM5MX8rvzA1Ie2i3wFeFVqBoPZGOiThbM8hGxs8tm3GVPPkmc2SraWqhmxGeFcUzpXIeuG4aFli+n9kHtHqQvoqbOOPTw6D4Sec8iy6wnEpg61tYDWIdhZyXo2jCMyy4txGMMQRuB9zP7FxGP96ul4AH5T6fKWxSzstD+G6Cf8E+gtMWm36UWpMiiWs22G//paJH6tKTJwLtSdB2aGWW99eD9KGMnke+ks1zqrNqx/YK/7PYxsTr2faaN/TuA+gc5gzjmmBTMhDqNKeKMgC0c5iAoTCQ9xnIoGtfv+v8+O7swAWrhoSPUfCUIJAzgo0PGgQGkgPsDRCN36KGgTJOATTk08miyLG6l3/ecYBgj+2XKVusxzyKMUK5WQAXb6wxmBA0v8rgsiS54LmfC5y5FdLpQyyxv5ItVnF+n8NVkzVldKMOgBYqfoI2/ean/xzVjU5tSV96DMzIKwPax5lVgFXxpQHIxJjHWOtWpD4TEixBkBEzdNQRh8NbifNA0CwKt5Wdl/tx43YU7IMXfNig4Ue0/4lvo2HR69cMmqozXiWehjj919/XdF2wyeJky3/0uqykXWBdLO6dvViud0WEh34hHPJUvJ3rw3Y8GMF2awD4eFXqCkGP4LD1UJ8Ol/Qr6KjtYdKSY93fZFGvi326sHkPg7sEWyoXnuhChF6gqU/PDEFJwZDb3vD7KHxaND/HAkj4aSDuLl7y+XGaju7dGYC5uctKyz5lL+OQSPFi/YON2d4iXqzhSU/Lxyoy7iqRpxbaWwnAIvXA0Jd/mKalcC8MTL2QCNu5bNLtbR74gaprZemioquysWbffsxiJdhGmkSo64HTTQjbYuHyoxlI933HzQ56qYhuFQyBzZkHAVVdbbVpmafZZoSmehIW3i7QhvK7rsga5/PyCRfApOnazBnweKfBwpp86brx/i8wrdgkQFDRrGi7262nAQtdWVGHXK1OkUS+M5B2m6uQy2I7zBg2jsBS0m2U1qm5TPS4AU/VtmcNuOm9o9lRLLVujCGJnYuPZNmujCG1TKfRKoeGJA8I7DKHRHi/9+a+PNBJJM33XUZNRvNO2U/497q58uGmlgOh94wvaT+dr7ndAW4HKaSpDCwMIxWvPMBB+ZK6prb/Re4lNPBCzjTxWkZj4upWMPrEcC2M5k0Xj7Y5DDLG+0385IVfESkDovlEWvqpLdxFaqXuguI7LEFnsBpVENWWlf7XlCLMT+3+HV5zcmaYpq21tYjXKgXtQhotUwYc9nxNCIm59PTxbzPKBO6qLKzhXiVtQYOe/j/ahqfqK/+XITjyYLDodSD6/djzzCw2t0pqt5pg0E5hsq2Wt9nS2czkBdf1kwXQMe+6U3E/FX50WXtWQHudJtFVFWSu/OcK/03JwPXYXiJoZJntoW9cASRGgK0yGvrg8POBWtzyh/S0j9QbTdTRRC1laLx4stpbxf4EPrHpoi5T9+svKnYCLED5eMYvBDi3mcCDzxcpGgTi+5eVn2ksK61IZ4EWdaaX/4N+IBK47fpc4t+TT5Kn/3lo4It3Of16WDRmjKjW6b7+3h5ce7m4NhFmGfNgJgl5VhOoGCxXD2IU+67Hx2eQkXyN+UFljQIYwo0PGgQHggPsDRFB3Lgbzv/dKktI+Iq8ixEbCKHyUq0GLEU7GnLtqqWQ1G4tSE2srMhV7mQ4y+a0Br07hOZsq+6tehggj0iPwNiSNSQwnye3RF+JGPIV7OGUmQvcM7VBVijvX1amywT1zyXznDaVu2eFeYLo9UUBY1CsEWUsPVhjsCjZuRfYfYA7VINog8z9V1mePMbuxFdhUNYGSBj370Lwf84P2LMwEUTGshiBhrx9SrexDZA5bDJ6MVS1tKhbjknDQSXyENkzdpfsygS7B67esM0ZpXXqGMs9yNP6csYnLv5mgodLMrn8dBr9ctHAZ+87nyJxlwZ+5wAl8PJAMOLc068phsUm+jKrSyO3dZVoIqwlZkCJ2niEeGUfZGCZ9CXH8AzT25XqRVmmoxNFsP9y74311W5CKX+QLoFkU50qjuEWWAL5ytvhRuJBPbiB88ALpqvyhT8wJNg9Vg2+HI6nbz60lZ4Eq+A8dCQ94VEGSSjTo9dmd6XlvnG39+LVXSMuHfw5k72/WVwbgzkIfqb+1fFiO4c0lvnCArheozELKttXvItQhsr6bvGK9nSrQLtCE1kcy2IySOazV3pudlTFlTBixot44MMOj8ZERYBYZ+Lb7x2G4SSvwVA8i1U4jQL7QQhMfbGYNo2XgR31l3YFtpjBaInHdS9yjaCJhtDl+7NwFtaVwlR8oR9klH7UByXk9EFP3o1BkI8s3489QQiRDY3OLsRKMg9RDSvooP0bPs4/YIMH3LPX+c6XVmRXaeU/CLOwrhdTUE+2GRK+QgnvZKQ/cxImlRDnt7bK5KDI+AEnpM25YAHwoZGu9n0KoaKlMKj+LUv8hYemwoLCaHLG/zcLkxLL4DVCCe/MhRFmgnFFJTAlr94+WaFdvEFZO3IOP83GgVCbAfqV3eemLd+aJQyi3XivjjBA/IZoxSaYFGXwQ3GQI5iVAUXUPPQcwvyPNkcI0sz4KhUEugxtUAaS7If9DHuQpAIP39B/a4UatPLpP82b0aUM4ExbnvITRIYXVcFyhLc1Zy7BivLKbE2CMu91gFfxfGJXosBjHFEyKexnpqr2Qr4xlUFt4TDVVGahaFokBbOkVmfIzxnLPlgkO5aAs/4fD75GtwOOOHjEQPmwYNVgYlEonphfeDFYuxiV9bvdO7HwdaJNCS7kfSHBjXk0QFdjDbZD19RPVJ1f/H/429HJD6XQzS9j11KsrD2Yrk6JItbEw/eu/o52OXQAHJUXJVSZEwxh4OY9wZpX9+caawMVL1AcDEijd6K5udlADc5iiHnvmo0PGgQIcgPsDUcibHJekUc+1Y+GDrapb181a3cUc/ENjXuBQ2GyBItnmt2RxqzDfzKq9FGpbua8WX4EpQmb9C1xzFAaxqo1ptEQ5OLK43lWScE2PX7MrxWXPChm2VK2khIqm8ukQgp7G2sGTLLjgGHhmDQUvZJ8wXG3vpSkrBjnaQ1gHbSA2KAxLEUtrrpPACxbaK01wnCWwCWhte+GIyccvrj1F2PEwGDX9bNLDvklIxKYkE+c/tMZTmYjlA6hR/ndf+uEnev8CS3yC0R9d0wwrQyjI6qhjrTSUvmMih+XVkbX5nINZAcuOvK2DN57c090BMLKNsMXU+qdTn6yvN9Fb3VYyjeJzuXBZuUy/B4qg0rpsStb96UjuzhXRnUlQHdfyjY6JTDif/KZ94CubrSYrRm4fxdDrHPnjiGIsg/j/ZRNwq9QzK3I/h9q2Ez0sQWuGllw4n7cyKmjLSDA8uHamZWLdUkUQisrAeFn8a5F/0XN2cYj2lE/myuvSd5EPbC+xQ/SUEBetEhDdnl8/wpIqRsfRLtHA+XNP+yt3+fwiVbwUPs++mCLML/V2EsWydiCg9xZNv5/jtOVlQNb0WTkZnR58HjX+e0qW28QVd3Q1PTOjQZw9isaIMt9r+mbe/rFQHLh3CLx7si+lg7jEiP6phsFpRuQRZ/wJ4Bkyl9VaS8atnxQQS320P3XvSYrclDQUeHd6I6fZypyOJfrqZ+8AerF6v55nQhACdCtwLln6GH7TcrbVmqx666RFt11ZUg6xGhg0IGCMu12p9d6KLum1eZAo1B2I4kDcWVP8p7/6qhH6myywv/8RS7YrEKCmFZ9Nav/0K/zeu567Y8SENP6lA1KuLkmKgUPqMUqML8qckVHUrN6GjgI5x60KogMv+CFKI8NEZQ/cXfa+Hq5DlNFblIl9PW+lH/1LinqV91zNHz9JH852+xVvQ83+AJJSbTvilE+hSZtHSWk7+q8JSIOe5akJ0q8wJyPGMFG4gMuUOTdBzYK+/nA2ZfuC/KBOtaNg3yURFlB8c+VYwpzK2d4x2r4tejEXM526SHPcYdzgVE5Cr1W5g3LNm+/lZ9DENF/d2s4rDe3QQ6AhYpSQ8gPrJg7lbZG0IKVM0Bkxu0jc4XcoICaJn2UNVZ+eHJXuQl/PKc8RmO3/e/nC4BpQPe7LDan/63Puxhqx51gsXRHLPw3Cpe3vdYq049qTD9kT8lYGbaAjXgYDBsKwzWyqxhChiDS3m5uJq6hI/RkPDCEnSJq32i0/iRTGva4BKbVse628iZu9H1jSo0PGgQJYgPsDWyU7HGBVWiZbEji6PjtNiCEZb8SXs3dQcQ+ojdDJlwjnY38iKekjvcWCSNgLtu7FhZzyIOZGQnvx4XTaC7NdqshG4PE9F4KehQVAb35nOMCNkd3dBfrqohoaAzTBeZCuygTaEyViPBglkmxQsplamAXD9SPnUA3Cbs7Ci0J/ewh2x0Q1VVcIY+jivPj9h/wh74YaMXS668Z1czWIm3khssPk0SYUURIz3yu2OBhd8uxXXwxB5U6P3qlntIowKz+WMwi+niuVErvDyzNMFuUDJUwaV2NLmu7FM0uHDzxeKXb8/pf9tR+/CFtWcAivcR5ARCSCJ4DJznobTvRI+pRbnUgDLpF1aauKhb7VzNbmUGWlSbjNU3/QWwKbn9TRSXniaObDsQ9KQe/wXziRzBYWMUiX5+GHXJR3A3/pXgZeR9hSa9GnWmNdo+SooWJRmIwO2pvL9waM2zBSmYo24OuHPTMAovFRnT4LgHLkZK7ddql0gVrfsUwsot+laAKYM+YpZxbSRugNNwUZ8x9kAUx2L/aarbKy0D3ZChX1ZbV5YBM8UUUU/M67itb5EdIc3t06qNM9cLxZneLYTLHv4J1THSqAZBgAwYhC+CI/+nO36ToKL0/NT/vmREU5XhmBi6hLALPVc9+oE7QoemCCDeYG4L/JxqYSc5WvrDQ3U/C/yCYs5fDI40aAJodfN4Ia56WYsGvU/8PSt6OFjO5rIzqnTQ3Zc9Cie+6fdoF4itXvyjVzoZKLQhV5C1fwWCS2HiYv8gjtBO64zrLQSCRz1IkZq7bdm4jDqRg9i/GrevBRDFUe6Rx3WbHPaWZvIpcdWY4VIvoXQmYoUL2pe3ZotDw+4lFv82/0bAOWBy2vR5TknL4GxMpUUtLTJj7iBciIK3tFnd5uKLeOUbLNyiDoMXHl3cdKQZuhOVkoOzRNMI3x2c7aK9fpPhC4BDUpWFoVXI3NyRIB9kAwchnjTV0BYOS/dLmLBJymUqkNbj0RjjCQY4u/oYzlk/LYTmvzxqHlUFHce4erYsKSF778YTWlmCLQnCtKQ3MS6SwYOQZwAFo7htzvWNEG6mUFJ0bYad3VO7q3XDbiyDqTsFE/ZVs4qlTu+ykkCzh68Spj3VHAbvhoau9Ho1td2NC4lANsUvpB5tkMzR5YoI4zGeHV9sXXciJHnt9y8K7J28VxFa4ps29AS63Df3zsr+wNEDp2U3hLHICQ7Wc5jd70+Ybr/QyN1vwj0j3OIkilCaqWq7eHMBuSrZ8P2PI6rlMSe2P/1jenrZgno0PGgQKUgPsDP0z9epvUOu5C5fXHgRDICNpQk1+MM/MNwMCjNxN4IO4hrqXae6oH60OCiQpg5ivRT7DtTx7X7zOE8OyceY2xoCCRxFrqu/KKbBEB+PavPykltvBV1HMVsBklbGIeH2FlC1xmWZFRfRee9RCNblzJLowBtSYyZJGUqgZQ75eq/sofZ9mYMamCjAfPxDUWYbgIIi4tWho+P+jVTH7dUmm90VuWjWEmZrtdJSlpmgIXXTy608G+sK7H6QdcPnckPr1sd1u+yNQYVrd/yTA6IGr9IN1nrLgyKF5KgRAPFf7yp10p85/Pf3CxysZCyVHAS7aedgvzHNJQjyBjNbRpDT9QTo0CNA768iCZhHObkNEDA8rgLYNor70vWns7q+6zZsYIP/OjwkSWsAnMIGFafjQGjRMA05u9WThbjXxfqDvddYxPzyPkhO5V3JHsfMQaB5cFva6rftCkgK80lQ9DfteF7NlHaCMiYo/zEcbeNxFbN0bxV5sxoagg5yC2EF7tKNyFPrq3wz/8xx4sGCu1TNBsyeAgLp8f1qUbQbARySOsd4DLAPZ3N/Yo336T9GL9HxC4Ev5oKo/3Lr5VRdrUPXdFI1q533ubIzF6V3XlMZlc13dCpje6vHvwAjpl913fuYNoXPOWBcXpWrb1NNh8qBQJy6I4+6tWHPQaWiKKEQLbHEr4GnzIvfPxZjyl2MvQUlPuiIWrUYT6QnfPx3r3G6xVzlJSge/w3VRFcXnPbbVMoU3/GqNLSOMYf9M9RN1PjBKUogo9lzM1WG0hpys8Y+zJUQi5dKCgKc4Sl/EdxdBAGWkvLHLc8Lnq492gg0oRxPZhCIBZJ81o2PaNHPVpus1Yqk/3h9T5E8TtvxEqlQyNB76bC7Lk+mAd5M37/OkV3usfVBEZBdpD4+j5ahw6k5jZ1azcALhdAvj1K1xL3srNEPMKVw3g2l6RGPUdPQ88FT57kErsMdbjX7iV4l1+wWCtz6kotD1JfVVKwjeC9+A2nhxFb/lW3BqHfRD3dmYvyShMmL1b5uxQRCr2ol8DYCvI9YhxFNDWx3mEWbOuFfzS+reWmSdpVXZ4MrdZ/TZ3RtqwnnGQK/+t1RwdxxzXfKYtgs1tfJcJeiogUymtG4GwPvoajxV2J5xkCvuJwW0vzsvHpc+8JffTjN4atkaQq7Ib/ouiZIloDIltJs9KKATeFiYXg+N2vOjmkNW+jOayqxJI/qjwkQR6LBylOfgyO+oxaoTZBhcak8WLcXvqpNqshJQPgr54PMg4XUX98xsssx9Jo0PGgQLQgPsDUj0fXdwXOGVrPBMHKu1YA62wHg0ZS/bgbw5KUspDr2srxlEUao+1DWQSJ+qyUlwARO30eUQpCCb3WTPr/EVhcaQ254HZ0Btvb1E3PNU4gO9vjw0hdfoslqIzv/uo40OMszIdnvqxBHN8bqwQGmmo337Sy4vlyCUtWSDnEAmJBhb7Ssz+daGJYy3ZteyCAI6y5uKJJX7XWUMod9wFaGGquXuEZRDnB2bVMuWVTRpUYpQqmxqs7Vwv5O9nPPHA04MXx/CgIrK5kZd8DyP06PBCg18mJmXmDwTwuU/W4Q98w209BtjKcwlSIJbRWN+ARft86fgbx27uagoU5DDzHqYxWGYLJ1Y+RPonVo68TGxdsLGIN2o2uXemKJYoR4UHC45YlpAB2tb8GZQ0NtsLUEdDQIvMjQXHUmq7C0Se+TZYqi1RyHJumhJ8/KV6B5ou/t4yiUa+/pXt5QzWzW6iGZt0XwGyLdLyWhLNrMRJLdXhiYyMywYXnqf4heqJv7iqi5C3c57396Nr8bKxxjKi5av43aoLhmuVTb5gNqanY4v9KrcEJLMT8Yj55FP6/GFd4X49xCcG7zdzSfTLZQnxPk6dBqaFT6vwEBLSgggNqqPU3U3PaN7JY1y+AEjPaOUXv+b/At85cL8xh11MuaysX+w890vQOCRCSOCJNF/aMWX2ZZ7+QMIq0n/cONG4rjRV8ve+f5DGd+5tRyJmsTnyEkJ+Wp608r7Os8up/aFS/qVQTFDMeK69XiG+gO0st64nVSpB3dAmCtD2LrVYgg26Ev67Y9ctoI5zifw1tA/3fgMkgGwi8Yy6BAkqf3OSu4YVcv1pxXU0zuhfROsUBQyY12WHtFHSz6EM+lJcapXsmg6EJyPD+I39CQfMVcg6D4p9nxRGREQ0Sc1zgeyHzsTTdoQ+uD94FnlMcoMbghMhlQ/MFL1xA7UToiqhdL1TEJTepQl4TgeCJ1+ZGB32s7seUh21KQhpXEch8oFKyFjTvD8gpqQOIdtV0qFM929weVvotjgm0zdiyyzMQuyE3CtCV68t6/ibUFLlQFwsP0rh2zw8NkPKCEEGlcY5U13c40XBQVkfCsH0p13XUlWUn7lrzLdsvAcHlVBRGEvphk+b9llxboQrUGl8u3PwuAPWB2xcDwxCHlk5OaFlhAhEAhaimPi5txM24am4E1QJP1b19s5Sy9x/jthS22d/XXOnvZsCveRcUpozNb4CQz72vYUAm8/bcYQzrUJ2lb47q7QKqrRdwl0MpAojBRyjBle3vx0H18G9o0PGgQMMgPsDWUxZve4JCIDCVJE/VfuLdalbgIiSpf7w4AEOOe1mGaW4QCl5/0y7KbyZtwONYxGhPrX7VN1kylXbybVTWvK0DAeRw6UnGNrlz0SuzfoLsLySjdYp+LASPLzc9EvAlfqLiccZtSvO0dZzeST2YHmZvcdsFJInQxHXXtoBz/MDcs1dRpxST2vvfl55m0N3OhyBUgMQf1+w6gN43Ry5/0o4IetA5/4l2RNaKp9aEe/86NdWbO6+hQvwRCT/3kHI1wbyrKPakLVf6AeyDRwewUulg/mSCxf8yM8nK3UXAmGqMvNyMFhRNY8Q+LNY9/9lGvocpEqX2wvCzQIasymAWxM4ya/bqJAlYI6UXnePPSgAgpa9yb/uQyLwBCmlfNYWcv2PJf/SlyeksQe158Q5/QvbJym8v7vRTnEIHH1uFOwijiVRmOXf87JVqvLtWcf3+SCBkmrD4hmfn2w5B9rOOnEwTNzCFbDSoOrMYhz6L5do71Va0IUn3k92Q+q9R09yjIOBiQbjJDbeyEJ2OA/yCN2Pz9MH9Y37r8D1jcBEReGU0t6vA2fbXYqDyXhUyorN0iUBdQSQh9ztbKujuSrSteRc1McJHetPJfotLSM3m5oE+K4RAHVDbWRO0XoAMTb67nE4JHU3h04/IggGlAJhmKJyK9BdWhIHbrBe/PYyEDPdFpRKAI+l1KJDSFKXmxu6kXgTPl5BsRLlqSZJ+DXLPXMlUyp5Ret1om3DkCD87gz04MVbzud0PHHHpPCXUYH9Qx629GmOlavZ/N/dBcv17iQgQ5Jn9RdHOnPEA7FK8IJlq49kZlzWFA+Xo6F/WoHWtohSHglM3FfDW1VsxwO+9fyUMz1d3JFIAm+JdSNZkSNs+Wle+gQH3mhO3suYr6Dygn58UgnomNWr0z0TPLgqjE9mFY6m0W2IBpBboEeMSsqRMDCKd/LdcRhAzouS3e6F3Qswm/8XNncWt4MCuezc6qSSGR0c2IKKb1byLblex001+7IF3B32EVKp0LiGD6qQdaeff1LS7t8P318FwQ76K35UGoFHOGdw2NGCWEreDX0rVB4o/Ww1NOZR6WxOxfP1W1qiBu2fcc4eXEgsDTHcnCOZMUJwr3EqKncP7gXyAn7QHKe4o7XQGAs5WkCPwJp60MqExfjFsAHcUNAK4SipGMxBEUE8j+N65eORhCx0MrwqTiHQ6+ZlHvISDACP4YIHzcE9f14speh41kLKmMhPZSPXkBsA0KKazdUEcDeAv2C7e6NqJ/Wnoeyjo7ZKC6vXP2dBo0PGgQNIgPsDUjTqvn0gGJQ7koWlKjNBxVPOEKgavv7V/rn3NuutB+/KMzr7p0qHeSngZpfGooSkUSi74pMgXcit+R6BfR4+g1AqxMLgNUGSjOMY1i8JcnfQUqxsTbPYMTmYPUu9seKbpw+G793m4a7ioNKNilnm45kzcCm5ItAdxdXG/9gC11TAz3ITr7CF3CKXpJyzwGdvQuq9bYVbYS7vyo0ICnbfpXMWvPdqQ0ODjxq6CdNmL5wN7CjQ6LKKxuLy1WBMB+yMSvA3jvzR9ua3/CpCQmEWtuaUfSV5/m8uloyud2qlK8CjPT3i3DCX+TYF/GJ3DhLh6p6xFFXWHgUvQgnDGTIs+qwvpLRcnJUob+SRw3YYW0YULSUfqIYRoV0YeLl8CsAFD44eynyAEQIJiVc4CQXAI84gyhF8H7b7IYwCcrd6vG9SGY8vLQDbP3BgvHVohMqJ6JqHhwDN530fUK2rhteUt2wCeML52PRttBKVYF8GpdB9SMlCTzsxtlQ7GUnpFbVWTHH8ANT+jSd6aR/QyoyZJx1wb861MRzDQkrmFoYqywprf05YAG6yVveZIEl4JfkJZVNKAbKq9rOVpiOKDRtxYstaBsAO+cTTn1cFExzwgngaMmJs+ddRDAXIN3ixUAtxt83SDlkWf+VIZyyg2uRfl/ywxVNXg/FOcTN0O49ON5Azzp06CiJGzC7Xj+pdyKLlKpNALAzDS9kjH6vZBtet91wW0arAe80EQaA0BWTFZOLCWujETRA3BRiyRFDmVl3iNmIdKdeBlCri5Ar9oOAPpqclz/XSb6QGpslrR6UYCWxTj/us3gM6tQrBLfdv8apme5G/Cw9TZUH/O0e4qw5Xbln02Ae+r4B8bioO6SW0cXzSH9kH7h/Kau/k4e9UKtOx5OK9+mbqx807MX3HER0rJSQ+gf8QFl/lxyXfu7B/uusWmjz5v8rn5paqMqza+J/tCjV30m1TWMqHFkCVctIeI+YoyorTJ0f0n7lOCg20vIUBSqfrmXIA+NR9P051hv3k4kMjVyxhBmqIxfq3rg67p9tGYfvrECklMptXn3sd7fjjPH1HRFDN1LagXKRUeexG+u1THvwXJj0ZGvIRO6KXNyYtiyUYsN3QeYkHdyVJmulM/saOWLc+Igiuip5EUwsYPIWMwYCATD2PWkSo8vs7bujm1I9+Ykw6Cg2RIGAEXtBD7T0O5uDmgNepmQFj+GmeH+SoXW+hXsMY+EBiN6kAZQO8n7QZGM1C754B6TIuFENW6QjUub5I9uIItToEcNa0o0PGgQOEgPsDQDVTv3ZGTSQaOG69EmDqRB3kbLoE5WYjTmXROM5FF8S3zq0ozhDhK8RSGpRiYbBXMZqWmn4XpYNb+XLqym8eqbdLFLmvD4JUGyuXOsloB2h/+92K2CWc0CzOkOu/X/hKwYFb7xtCuCYDnNoA47oFlVVx4y4CEuNBxL5nnxwqCBF1l8p6iOkHDpsbAtJMQ8hik0Trmgdv4/eH8GYa3TSqqvK/Gnd+pL4JEEYxG9po9fGcaLcq9nkClzP7fjB5Ml00Kb+t07imB6vBbo4IbU8H5ufwUYhwYERPGJ0dud6W+EhqYZ0/Xot8qurdhLPK76Yk0nZMwYNerfsJkVT9HVxOnYWZNon9H0dTMQzAorZVCNqj42reqHy/FJDcHxFNTurCFM8IIwHU7UBOQrkmUta2I3q5FhiVAcrCDghx7SzM/LBZf4XWW7SFlyupf6qfxBPDbQOGi/AG4wxVSjbGk51KLRYU7LqG7JYtG/pS8quG4MQiubmmpyGjhR5lxx4rkcjQpfphz8OMbEH+tGkuS0wSTLkftSqxj09oPL1G5Jd/faqVvyOncdmPNnc4kp54qzLDUeOMW1HpINvLl5Uu5FbY/18rdk9Re3f9/FvzCoDhl63B1tZv0Q/D7PKO9sFeZGxImpj3NB+HRJyIsr50Xt8oTima6PuDRfP+wxbpGc5hbsq/w6UDnC266KPPFQ7AKZ/FoK+3+lzO23Wjrf0p2/KsDLO4qjWmvEt5eZ0k6uoQKWf6zSAOaFymb1wJSGR20j5xaF+DOnvBdaeVEqp3VJaA3ZS9eH1sLU/sOeuLSEa5KBXLhHljtyhS//1XUIW6y7av/5nwugEfWMDL4UJ+D6Oe1lGRHAbqy7fzM3NcqgvnZW48bcWbCw1UNpgJEf6YbAIdgYKZaXNTMcu2pHt6InWAvPBPhauXiU7R1mo/DXhGapF3ssCtFWEn8DPScIW6DIBa7R0iKj/QkxpwgGX557bDjGrH5xNkdGD73weUJz58Gl4BdcOaP7hfljoShQkdxL5F5BS7b4+cp9Q/KQALuuLWxfovcsFMi6G8KxJ3FitrPCi6egy8InGAQYrIfwGfeHX/bWyrNv4IImGhQeKW5P1rQzE7VRmNVr19DvXEYknDR07qCdtPkveFitQsOLY/he7939f49bUdRIaVrMXXO+lQcW419MDj6PUVu0ix7hHNeEjxNbm9r0wC6LWdzRM46Ub49CjsuJxGzw1iF1pAsLcG75zw9OhRBL402FM5NDuOqsia8w35HcAy0K0bt5IyRvemo0UKgQPAgPuD/Ev8J3L+PxvTR80006kzkDRZ0bMc/Wrfu8LvB8TkR1zD4+ZL7jwSKha5D0EYavlCMLYOfj3MV352npECOeI8ftyVgUWZlnOEukpSFGhS4MnNNjcVY9t/5KTJtImXiZE9xOb0sE45fqZwXAEy6fND4xA5PKgBdv1FYyh984rQbc7W9bZs9DL3o9viC77rqO+Sha+o4QfAGonN/u4MZsKSEYD5TW51BM1SRVKONO85dWd8bvSbmAiOOwD9XlCltN1dczzz1Ju1hLNQrOOeX2fR2ACx6oK82RmamBjTldYOc6Q3WVyyw4fEY+T0Eo/RPqMomjB6hco0l3/ma1Jo8WSZZE3/MW8QMMEes3inc/6p3+aSCmhbMhdjsJ0u9wPVxZSP470XRDdJ+BtniTeCBgDKKpQF70Ok8gznzS1Q71MIS4w3FAZl+ww9fvJZVHvOm6giLCDBiSvtPDxuNTvMjuCCGeelrH66lta7UA1MhleOqVATKuCQ91z3wPOzGabh2Mi4NMo3u/4SvDFDVxkAolg85BLHeMt39p/Qu3TmxjCKGROhE+6UTEPeJvGdK/zir0HduQrA00hFaD8v3Y75SlyXX8LIDocpaXIx/VZG5743UFrt50w0Qi7qSv5WkSH7IqT6mxEM4WWIx5i4e52oJGTglwcRJc2F0i++rvFsxilsBOhk8c0zKIj9OFQO+hEmILapH115/MlFhM7pSeZJsgAAlXgzveathdXZKqNOmHvokOTeAiUhH/Seso7tlKPiU9rNic6ZucWygWiktyIAjgtyOY4rV7Vo2FRL4WYve+p5HrswOeERnq+JmRTec4Wjvv0p0WC59kDKmjgXRRzglbawFCGw+s+sXq20v6j6aKclApSax3tVn66EM/uvJaR+UfoWBvBjHFV1DZNc+3alwYEbia9jH+KbxGuPbfT7QbU9h+Lzue5SxyfKmNPNdybQMlTDKuUSqzXeMAbQtViQUyjw8SQ+yzlgtSkHWB//KkBdWkyQq4RToaIc7MzzhhZbQp4XRVtFfcrVO2ngiu5J9Icqxtb+InFUnNaiaDu3IUdYUBErsGPluEn48VZEOYHDMVoQwjpiEPQyfxAbgy7qjqv8cIcNbmTehor/fk+Uu4D1LoNJ/MCMFk4ERvT0PFZfO6rxa4WNx8mKjGh4+pLhBlIfFFO89UKZWDis9cabqn0GAgT98Qv7tdNQ7yrBexfQVBzIAoHmpuYwttmiEiec7YsAS3Ju8rQLh6hVGpzJe6FBsPwWSM0B1k8CDaerLFee0ENvSb5qlnk91RIYs4wRIwaVEM4DXXArneQ09cChHo9gkra5OuJxNm6zNthz5Seu7elrecQudGosZ/hQ3v+EsgzEWrjI79tLF2EvjfHM7OEz2fWJE7/dDs/rIIvP3o2jsYJk/YEqmHxtoapWWVX1Pic5OXRyex9LyuuENAo34oRtmN+kwIhjKeu4UatcelTcrech0uXXXSiXveJEp+2Kw95MxPBNXMgXslDKnn8zWCAOBpfi9z+R8kH0JzYGqrI8UOjd3EWEwSzw+RHxOpNdsRdbatLHhxMEsaSsUnf6qlcJKSSXnmimhSksGFTzWCZZ9hHJwxZCc25j4HiLFK4osYcp2BT1OBsRTbr8KbN+FLrZuZ1AYpYJ7wz8CRaw1lRuWu5lcmgRUBwr2soMfcaQ8wD11Vk2ESwqPlg/Szw5vc2i1uRkd8eto0O5gQP8gPuD/BH8EXFf6ZCImIT2OeQBd3REHYw4O8v6dqgOSGsXVDVMApClXw1B8mNxhL84mftw3aUrhRl8biUj5NjX317cckqh47rPm7TFGSTa/mSye1PI8v/PLmwgWnfF7VJ5/BfGGUp7nZEFjBxDP6VnJkESQ/Qc/g7cg8MiyivM4BoZqVR5v8Ovj3eifKTm1QQUMgtZtXCsKvW2SD2rQ2eOSNrdJttYbVNlWROFhP8x6YyhBmS5W170wVcr2x2lM3rXw11pUtUYm5mKL7wBCEiFf/Eo2mzMVYt2OImEdNSFhFy/BifqQKSVtcmeX/fdG/7rVc1CkJ9cFqIWt6/qL4Emtz5wzuNnXz12PC8yoZJC0gtTj1TnUHwH7p0d3EPwanIpoPMlmiz5B1DyAf3y3lnUKpoTIkQ5NoidXtbBLa+8V2bSsaPJMLBZUz1NF4nFcma8BGG0n/T1vl8Y/nBpo0m9ejF1Y8imvDJttvA8rFAFmhKu7hvzIZqJZ9FAsXoQVAFww/XJZIRfKetSmS7T1+eyb99RnpVhxf1p9lPl3J1Ha/k413dV+3fh8acfSuiXE94GEn4tCGduLhiUQND8uTTRPY+6sEYUCSGMtSKr/Dd58Wgko7FzkXUt8+CY38OKnXzNYckjYO2bkZBCDBu/hfQf3+6Mmq4HsJYCko4AfhSn+4IWqnUcqH2o8L6noAeOyabarAgOIafh+xmfxdUziIf7HLxcanQQdG+MDx6TpQG78F6YeZ3eOS96smbPpAZLpkhq5LcslKKbt0ggxrG5uDXhhT2h/n72C63jE7WQZyMdTydchk7682IHpdden96gtQ4NNLZPv0iec67wS1acqowyW0UqjvnaEVRSIqHdWsOas649JcpqAxBSRNiyFMc08vpSKmH28cEnHwDNJZzWzRK1Ny/IE0vk1td8gNyAeLwERgUmvGs/M/U0iykNNPs6QPEXpQ0JUI6rceGDEKAf9UdH66La994uJMTJB47Pj2BW1McYtT7MlsjyQXRQtp7oRqhp1KYoirzcnrrEarvVyykczINOUF0kAUcLSstpY5Cwhrh8fSUMUk5JJWlkrDKb24Kf88jbY9RL1XPAHwoqQvD0bs25pe6L/qoaQOi/0+FDKrIPZisUrj09/ATibdXwvN/FWGAGGaAOpwCSYdp7Kg3pNZY6V09204/aYb9kta07pNb9QWeSoOtVtsA3C+SL2r73KBhHEhdPj5w1pN2iyTyx8KbRt+MWgLBa0LzcPNd/M5zEB70oM+ijQ4eBBDiA+4P8Df4KUkBEWnnjrx73U/nKYWflUImQEcS9RQ924F9Qs6eD00IEfWhrvb2fiGfekiY4vshvK/4Le9GtKAdm4q3t87QlCDyfICEwqckpRwad6t37fJs/Mm5n1g9ME8ToYmjQoNeEA3m4q+h5LytTKVeSFgQLbJPv2h9tnq+Oz9D9SzV5MEihmk2goN2BbCiS5DJk5Xfn2SmbcO2BQVZQJ8Zol9rBlyKlNpKBZsm9d+FHFG9i4phWDDU0xc6voVYE9pnsWxJFm/lJh3Ksd7cI1gKcd5IIiWWbQWwqB+QW5vcP+kGBhMKZMwT47LfYdAnEWFrRzyR5jd/Fm2qd+b5+siHHsqeqjJN4lLluzNEZJVu5KekZl69alUTcSME1cM5jsjCLIDcrgnB9BS9qH35+sQufIRwDM1IU4nDfs/iRFstpmtCygdOC4+QkJBJuq56FFzdlf1AIiFCdsRrhjkvM4ZgP4XKOfnm4mh3NiFsTJZHaLpUR1qn+gMuWbzljjrVwQReSvrtCZ3N/fCoDxFwtxphNENnm35K8RTj2wmcmvLVlMHycd011peNlshu7M5PURVw/4IILBpwjPHMz2MS1Upv3sIRYqKRK+5VQGBJsTP9uylEYEM6SGemHsEbycp0xUwtqDuoGUS/Mm554ii40AQDXv4XNxMoX/hYnk96LtiWWlW8QdGPrbww+tfIx/ZqmbCRI0dyaDyUfIpWbFUtl6U2SNHkxcgP35pJwcMZEM2u7udlabRkJTZJnlhlXefjG7mlPqW1n2qKlWqJfiA5m0eoVWqV/HyXh94aq2lI/nuvN5p4iK591VRdJ1QoaNR2cud41tIEEa6zZ3MhqUXq2sZ4W/7kMDM8ojopWoq/hqYPjrRqGRQhav9g9E48NdTuvCkp4H+axV/Rb1nrnBZYFtTCvh1Q/gpjQzxpcz/Qit85QWiMD4aRVoxGioQtwImonacupyjyOQXXU7L91em15UfyIHNB+pKoU6yZQJOqEtJLGyZCx61zxWbfVPLvpewZfjmvKhtpUhJz4XqzWc8TqtUixr59pemcb/st4efthxFhBSsOlZnovaIFwQpv0Ejt82cPeGPd1XtVp2qwCoNIUqAj9fjMflBJu1s3PmfiX7nZztK9xnec/UGws/F/XGBOJIeyvXGlPsgxJCG38xkL3uMvJjvx+5kpPdcjrgpCpg5IA0lijQ2mBBHSA+4P9CfwJP6Qj3ZJotR0RgyBzLuVq1Qx55jFaqmi66Qsi4hhArBioInZ6edkTwkNatlq3qIMww8JrQfufLvEoDI4TtdIcdsGgabBOopmGBH7BszXmVS8DEguGLMnW0ypVRb89RQhiu2XerAmvrHQFc3S+yUWiy7ro4MgsRq5iNgRxfsaaAIfC7ZPMe+sYMN6Zx5FhqieQ41Covh7yaX7NJFqVomnmq/6wkHTxKFVYMnLTXxiaAtptlcLAG2uee0VRSwm1nbmvB5eSylYFjDWnKZsQAa32+8QHq1qPmySdJMRrri3mvareB1v/lEhvAnuREOJ3nFlKDVSUQeD8g6lxkquadZzcYhsfziIUsyJaM3asJAh3xyiMylHL+VFZ3neooiO9stbwYEPH+hmHkEdG7upQ67vSdFRc5wJkbg2xULARP6RfbqYhtIFExt4r6aiXEOTPxxm6ruQq7MygxwcjvL0A3CJz/F+KEphaIrSF6BPf43F4CEC7gwNoKD260ZziJBLDf9+FhHnLZ7fHdgHnA4V4JCVt/B1uMDAW9AkT+uIQXZ3ckypGmkROLp6/CPrA/xbrIy4BH0w9s84TjANUnibg5IJq6bD3SV6ppzxOHhIkQpcqj9sgyBaSQ09TCOLOKO8mr1HTnXgqctQ/60c7ob9jzUWPxDl6sBriYhvqD5IO6B3yyNbPXrvKi7I4a9MCndzRq6a+J9/j7wTeu1vy2c5uXNmLhpbcbGkz2t5Vtj938nU76H57s38zeRiy7hOD73/m9LGlkk/UuVMyA+yrbrFN258y7B0RRoDsELxYxLoq5sV+Y8J9TSdUhmNuu7EmqibUZ8RBB/z+uOdtBAq7kn1346aXdJaiq5OJF1/a8nApZmmCbETld+slWqF1lacKMPBzlaHvTMNUrQClPJ+2HFWpkQBVt7xPCGMmOuGxQofi1KIjcS8kmNh7KLZJzdPIIFd7rdxt5Vxvq6NnykJmqorvxxF4jXi0sD70xmopB/bU8atW4T8gC/1Ffxn8B1cwlWUejh/AUVIGuPHDxjlxtCWf4D+0im7yFwsc8nQtUrdTeStvX8sgJKmby4MZkjcMs+8pO1J8ecU0yWxLcA6u6nwucwGQRbks+2diVUO70VCtRc08dng3BtcedWoYb0FnYexEewujRG6BBLCA+4P8Cv1FPSv+QGSOUYk/re9KBiYkdEEJcgmuQrN9rhTdr54WgRkciSmwW/q4wA97Ty0QSnPoEiq3JojjhRSKoivnTT0nhG9E3w5P9HU6cI90P4/FDAgGkwfL/ALFXD+Eogl96vAyTuj+DMrZJFJKwaKNfJ91uYE5+6LmUUN/r8Ejsl7yjNBEtMw3pvFpVrQ7TWNFDRbM1ZpGZV2apWbPZ4WyE//+I2dqkt/iIulNJYdoppikEHkp8tN1PFo1rjGzjwX9u9gkjHfMFhLbwcjb689qlPhhZ6AAK3YCez99oS1Q9gkWwlYKuSPW35PP81WhdApVJheE6NHoSlR5rmFd3qPftzFjtp4Ve8QLkBKpeaXehXHZBCoPjyAuJTvpC87WJf8jqYOJ98gVSX7jp012XoOclonAeyROTv9D/6+m1ADczfA+phwy+8pf4Pddc+fvsSdV4+V7miMVFn1xcjXdeoQbFIFOmwCchzQO3T7nrOv6IDQq2JDUaAJ11OZUGPVDl224wn+yFnaMEWCh0fTjpSs01qDYqOENE8kkzss05eTTQt0kpLxBjStSYvy4uTopiG60rE3fgvfWFzPB2pYA5EK7D6bB8lobOi44N99/GDgC/aNn4zC7yyUYTNH/BK3WfCeZKTTvfBMcPTbFNf2ap9BQO0eM2OM0rGUkVP7vIJk9UE2gNRN+mzz5lO57B7pH3pXd12RDKE9YX2YAeH/Q3nm/Ry4Via1WI1X0kqsE0F7yXsouHp/sclUaJHQZDFpPeczZIbCnxRMTf6WsEmRbpSDKLzgNl6xbjbLNfyrX/0QQeT1SSE4K3IZqlUbpJLlDlIXB6LKw7rNqGPUQK+7HkQFHw1TduBraQHRGGhV7CKCB1fVL7IJudFUdbmy6ZBM42oRkFWpSFYPzgtsYfWpdF1EgR8BWz+3B190ZAogp5TNUy17rEBjMBY1ZTY4c/mvu7V+5CzBBXFDvTsIW2A/QUtcdrLpTHMLGsJUoWv0n2dp8QYRco5tCgN/nEQmLHRQuUrc9oJ4Wa4uIb7Q8UzarIqaa6/6vnhX8V2WIpZf4Af4W6EsOoBpvg8T9vSbJ113iaixbDLXMqz1YJbxAzIk6OAv7Lhqtq6/xUffORrCwVeTCISEzlSGKwWk5Uk+Q6cz/MMsNGhP5wMDSJ9/jn6gjcHdqkLGJcoaM7lzScZsPIeqhvlcmi2m69SU5FmTIakTQRyh+Pb/IrDYaejk7/82K096Qit7Rip1ztQ55MvwqaOx76W1OqWuBz8MPU11f5/k3GhLHYIoqfxF34vzu2z6A0pFL2gZTNaZN7Ppa6+Tx2NEIH2GHeLOITa/sCss/iU1gUOXWk49+d2op8+HrP7gQLFls150XB6cItpnDGukKXn+8yphrH295f9QClzufuhBoOsp2LfyFWObV3bR5qS1oBfgys6X2Dq1KUjaJYzCtMzjs5OC9Sn0qXlre+jedqkFan8kqKLBG/7TqNDlSmeTxMFZRbEB0GEZIqo6jQ6uBBOyA+4P/DfwOakh7YXeXx6gIyNN/mW5ZVdC6JyQSep3kblhri9kT2V373dM/tVF6CQqaKr69zlerKEvq101g9BWKNHjE5vtYQq59zkjNBk+Fa434Bupt0yMjBYC6DkXybqAYjgt9QiJMeB5Bn+uEBw1BnXJ1perKhbpX+yX8msJlR9SKcwES+IGZj9lqLgZL2augb9XkjOuux3X1qVWLzvO6N3axqy9S2wifSihqlcI0Nu8a7X4/Y/ZH/e6qzRB2lQgvkrs/EaH5pSE2tDdoPOejB+qAQU4tOfSV4INCrXKDtyiGOhByUcLixPVcCzHhQVpI1dpzgQuI3CVwhsqSDghrZSsWoh+okoV5n2vlS2CXJzeDHdUX7UFihZAz6wvAr1ZrR+JYxh0h33IWsHlKpivXq/WhvLRB6DkqSzVWwFnAJYSxCXnlsShS9vvhkz8S0vdVs4PVk80I4TIQQPi9AGjkcRiixFrPxHwmBxjVdPMPD/S9nFlUcLbcb3h9W0qnUreWvVenHR+BzZiNu4y5V+dtNBmkS0Q3WfddOQhB6AiasZ6j5HbOttyWkTE2Vj9AF/nlrw3VQxLMW13YkNyvlAv517PYA0jwQQikluK6sREkwIdFLocvZ92qFS74JKwGtn6cN3a4YOTcINpufhbB8mryQJmDkv382A7bl9KhCGH4imRJyGBCQ97hNSWfyH1R18nuAh2cnd1hgU+uA5aikJQ6ngcAhu/Pymyl3aH7fKk+sYTaOPtJDy+osJVaKNY5HITpptmw9NnHuPXaxAqnjel87PNSqkHin5wE24fA2fgMvnn1UU1+X4lBLEFKM03jwUUgskFLKOCGwhkzKMo7rzZ5wQf2K25FZW9HneAbKVkqcAxyH+ok7gc6Ym4SiVWLmHjmWlGIg06YhGhpZH+GfM7X4WZmTG5l1HD+71tezfZ8Tkmg7Fjf9nIooDaB4w4BFvP8ci9OxigLQO02oJhmkXAz1sg/4ONmnwhyUuxn63sPm0+Epasigh4B6fWECxSMW1Y5hwRZ7/439FeK8DNP17wfZHKjfteseBfe5H4xQfhbyZROspkx14VsQmPonP7m20WZhMPJ2UWZ9wc5qanEMSESEGvgGEgZ8ZFNShrwZs6pwKN3sE320Sof8zfS6cSiXuLhVGnG0n1l7buPB0O0o6mfa4Zy1ChAoXPVxEBaYAsTqMIXRRGnOGmkgvXIMkc4V87M4Wcou97ybwsiYk7TIpZi/foBGVx4NsGjQ/qBBSiA+4P+D/4ewOJ2elcwUvSXsY35ydnKdFMDR4LDwyL07pY0vj2dlgDcLv4ztkZVDY3mbHxuiJraWoGcbq5SDBsEGKGJZIHpWp8fq8B49Vd7fSQTh6eiEOUv2qLlW4vEvUSyvMhrkE2DNFR9KuvwGADxPyRlRFQQ7Jpol7DRSaXNqI1bKalNNOYsf2XEmTn9meW9ziQBv5ZN0LiY0B/gCx1IInJprYpb+c+ooeaAekF9m0rFvE4OnAh1WVWOMXR91OxwhhCrMRLp+uQF3MLHh2p6B6gaz4mMkMbeBD26Szuav7cEgPTC8dbdBg4ZOfsRxKvM0uYWvJWNb+ZBp+Yz/kzth6wfZE+T1W07CdbDfzXbYlkgQC6N1odF04WNaUo1lmUq2Oxj0CmA4R5UlMwsceq8MUZgpaMqdXWsOLryJ23FcsbKPZKgIaT/oqta886fGVoEiJM4NVkQpzkfyBIx5dkfo0dAZslMzfCRRBbkhztWJjQj6qNiGMsdwa/78Ho5K3H5+5EvtnaQ67Zkd8eCibTPmhaokaPKTNlEXOCnzAoJUtWP231deGTXy8FRVoCDVHzD4uBos6UFrk1JpDMNYaFre/pFD/JYqvGV4cSHDH8LvIkDQdG+e1eLDq2XcdX2lLMAOx/lfXXWSBfG9baIAWW8eDfVUPX/a7J/JqyeWALuO9jyXUSUTvaUX9xw4zvL+1YdN4m3tFNKJXdtLDiqHNwKEx1lp5BYKnXc42xYR9Hqur17tuE7sjcrZRG0pS4CO8jfvqCsuBSfBOK1CWRM4rUvbYe5RFMwB2EhpkV1yJ4Ozs/ZzrkXhAcEgW7kbrSdDqE01JLL5Klyw7Pvwzk6dkdyxX0xNzmpOaYVHiWZBun3yRokUjllUsAA52rWM2et5NJ3izV1IqIm+KB/CTHgo9BqTyBMYBZxR3AzijJCapg3qfh4X7iUnabYr91tHA0u/W3RmxOI82P6CZ8QeZyT+/Ke0tHYqV0NS+W5Fm3d5KbKGzHyR1BowjL6DAi43Vp045dy71J4bJkGsPpgKV14BYSivnt+Zx5Z8XsDSmzsyFxO2GHVlV9FtKIzOJ6wRITRXWshy3pWGYdWEeGDivLKXjLysguB3G+p4cjU5YQj0E9sJfQa0M1XwD2w5RG5eAnnP1sYiyFBQmdHuk8LO2oVRdgAcsjrQLeO7xGqblTYC0afND9axoAyfvqHG1lB4pCBGJqp9DaZfOLJ43M8ucAPofBC9pmNvXjdFiIWDLROL47xrcMv/FNuTCLvdMDpc9XZtvci8dF5FMVjMWTLbgs5DvizzGJPnGynfof+E1F99zqkEqOEgYtxALuTLT9caW48wRtSTAkL4yWzo0O2gQVkgPuD/gz+FcWSlK+yAjZ4nHpdcCtZCvhzev18Zws9KrqbNTk6f7Z5EuwZWAFOxyjt37qUyEEafHTral08+JQ8UT2oNnZ2AyS2lhbvBEBjU8QxgluSsy6el4h/wLzLMhMS2LvXLabh872DeQEJpQB8tMymODq5UXOUq//93QKCrGYhvhs9oGAQGJdJRA3TFs9Ml/+6/5LTWbVddQZ3d4KFIBohqmf4dLdxr+W0zECSvLgAe8lCxPDoP8u6qBPGUD/1hSTGXjOMem/PBDIzQz/2Hah2+AcbDiy8nL5heSzvVd5MK92SP8w84yWNnWS6JyirApShnR70wWUgD+PlpfhefGKDYn3X0akL49T2ygXrgjKGMoyb7Mp3dmsJXsiHMAWSKNweFkjg1oDSYRgfHUEkClynlAZEyn9JYY/TmuvF9PFbwLhAleWgxDZMs8YqZB0c45PDhO3xrki5zWI2cYqcscagBUrRrwyiFqqeigiS0MjPi0mUTaswOXGW4AWY5xf2HvGEHTqlLwbdxxlrm0+p1Lz8EqM4c7keWtS+8wcUlyWy/1z4NIIfQgo2znTgqYbQGLvuHsv47IoHBGTxG7A8wkV3qBqTmZVywOqhgHDegD2/sIJXzThYq95nPPgkxUrultYuTLv01uchbF/DLk26h+wfEL0wmPMeleeCAmoP5cZWGZ1RSTnuw3brFC7l/N4HPvvXwH7U5aSnvUgV+gRkmWSopN1boz8yncc7GDA81tAuHWwMmY1l9tY7Osnm2K0lhesnB+oZIgMYil4EpMLJUpHyu5YO5AcSP+Ey9MmZKf7VBF+uFNCCUnmyiPiKUTXsxAgImjN5TP+6/F/ZHEtK4i/fT1Od4TkVONhx3Kv+tEv4ytvSIvA0vwQqD79sesxopOzylTlQsL9oDXr52/uSDIICe9B/pGRW0NvNvaU0x/I5FPAU2JBywItMYdKjhjIpSiEZzRpDXUw+mw0xBV+vhqEmoZYQ4laTS9lmZKovV7JS0+VrwevezIl1qIzKnCYqHeQWhkZOG0Y8Pk1uxxvqrvMaucjgqtSLIARxg0uL5pkdK5i75vT2/+F85MSFGwrdEKVNYM5yJkpj7+EfJ+QmJx/u7nubvCsOc/7PlV+vXYGP+ARYiNBmgemrePjtW2x5iZ0DncYceYAynV3TSV0eO3VuUqLEjxa/fjw+10Y43lNooKnhcFFwFI3A7DMkiZs4WrTk5EuoFwxfQ+Ge4AAzrV7LzLpgxWD0uvildLKVEYWvoWGjQ7+BBaCA+4P8Fv0NexzBL58fjx1HOZXxiG2q9GSs7dOoeiML1OTetlluDK9+E1oLNJ7sNYlzrQWYZoG0D93Abw75uR5SHmYLUqNBYZFqxGbY+ohXpTyINZbF0UbvtbmNImxL/igl1tIGfTqY083mHOqXrwZG7kxzrFhmV60PvxtUBR3j9sCFUeFQuTVKZg4d3d3E2PMaFEsZxdJytZ3MiDqt0KFj58HMIl44YEjJaW5FipTOJ6Py2PiVzC5qGKrooSjcDWBwLjBeaMQioGQRZR5XcpI5kiBgNUjO+/0thScp6+URk0ZyLJeSj6owVFzLy0gG79loEyQOo77PHMALBTJyVs2nb7eSzWciw/HASiWswzjC/LavCoo/87x18bzxjD0zKbK5Y2+Jt2A2WApe1XbTClXyt6WP35nFisFB79yofLkBUk1uJA87RHmfV4Sx548tAQrwaAA/ljrQ9P+2QMFFHbPKWsr7GXbCWodrWvoTTDnIvBV4YuXo2i8vgyWAEPPOgVZnA5mYsajrV5ZWfNvEoInrwSPQhdZQjtUduxFvS67LOureqx7e2Fj0vZY/QsA1/UXTUzytHaPYG+XZxf+EbJ20v8XOqqX+eufgtY770qzFv4RuZMVcHAC36dNK1w/ej5uyZC5GO5MBqt+mEdO/TVn2dYKPTzi9MDufyVpIWERvbDagMN7F6SKSvX8id7p8YKLloYNWoH92M34xXTE6m3JrDAciwdTGxD78hhXGs4j04X6eo3rTIjzPxkrRvGlBB+T+E1jK1178iyO6I1E58pF72rqTt/kODjyWLqYkmog8YA+bZp4Np8vNeJpoxgYftJQf+HqNDT57YDEnP0lx51EWkHFmA9p7N8BJIsK8wRU4jTZZT/f3ua10g01rENc66f4Ag9paTww4l3rwLtIBuFWkSFq2xBf1raiMcxtZ62s2s4cXBxXA2qducX9MHXWNAduePax3b8XkCMYVT5rL3gK6QQKeXLQRW6wrulhLnjULrghK7UDZaQpdf5wYl87ZpNyjS4kVKVUssMYmIyCoAW+fMwnLyiglRU9NIP1qb+B,
yt4QUbGYW5pEBGsIoWbcVgYzWL6MuVGGOLmwaON8gpJzLBfm2CY9ZRv/sATL5YJgT9a6sLuR3cFEd+c5GUHrUA1/esm9rIiJJLqhzduLBRpycyzyCULFu0I2W+7Ynz4uoSqdF+eVV2Wt9mniBmjsjbaJMicYH1M/lnd7vzC+rmNXU9p6Xgv7behEes5+Nluvw5DJio8ggm29PSeRyKND1YEF3ID7g/8Y/BHKVcsVZSLqrPjHQDRr3PrMvark1sUVYaqyovEttGbHCna89OY94UxboBBXuWcJildbWq4MvFT5eMM65glADMpoqlh7N4dTWd6QE96AIbM2E54EjyMtbwYI8AtVtXrEcxYK888W3gW5cGanSBOp0hKUEdIsY89y8keuIAps8NRpidiX46hUvkvprSofwQZiFyHrDAMF7Tmnym/3WEw/2oUNELunnvUWZyV/CVGWumZfsjOE7zJ6nE5Gqk67n2GzSl5gZd6n3NmqXvfj/cQRqPZrs9H3oxyIluohVfyS9p9oKeZOl7rzkI/rQgQaZObMSDbbFxVo6o+T56Csbggv9/u58BkDii9fEJLNRIF5IoLhqkzEJKvwsnceDPXqI2OJzimkrR79+MMSinBtBWyRV/WAPq1Yf2agf4xJVfzWGGDt15wVTkzv5S5croF0iGLgrb5KtsOoNCq+cVypMBpGUdVxnoNbdE4jcDRi7YJPzpW9th5/V+Oy0HlshDb73ONlTdomTWTFR+25JvtsQiN9HGhA0ABxNHoHniP9S4Hl05kZhUwZYqjs01MTX05EwY1pgcRf+GBTiEM9oAmgapCQSG5UV5SxEoQMDd5ESAnhUzVBxWlLW4jFDm0AgjSHGWVKhmvDVF1XOIYj1JXlvGbZwkoSME3LQbksY/Nh05r6lkuV7dfe643AeqFFhGlufKXsG+UPScbMJDYN58gQY5ZfuGyFMooIwofl9NyNuasr/NDg4wz+Zz3G2f5aCYhnG4sZuQqV9bIuJ1lvkSv/+lPkdNo2082PQ6YJQ4GRw/FqPTfKthdrETlgIMWYSdyZHHWE03I1orl75/H9NaZvmW6gSW9q94oZhGdcDpHSziJPsC6VcrFVnB0G11lR4UNyD9jGi1LaNiS9E0VdEZGFCog+3vDJmK7i5vRoedWIFWo414Xn/BcdN8F60pzs/xPgj3PS+l3yuCTBdpRlHUCKPVAul4Nl97vuuQd2v2JWzfXNoXUCI/0JB+VU1l8zu4qYrpkK9e2D/UgLDO5NZLU98gTEwXtQQZhS7yPQoJsy5VBQ0YsS2Fj6zSQCLk2zgXWHMA2lEMOPvQicC3odeYuYWXpwdRmZ8tW3SOKJFj2MzLlPbWIE1YlEcckyx6QgL7p/x3CyTpIwxr30KqAVXVF0QXyy1Wy9+7WYIq98QN8cw+eqk3vxrUk5ZMuJwdRXMgbgmXbvQEeHGpDs5VijILSJC+2jkhU08lSGmLZnGCyyNAREeguykd6y8d0BF9aO6nZZYG9NFZ6gPEPP8US6F4OPJqNDkIEGGID7g/wM/Aw7WOKdlnm1zWY6S99StalHUjen+nvZie6l/KO6WFeQP0hnGzz6UaZuLEgYaKa7G09v6dNJyZdewLjb+5TsEPYJc5ehXf1e3g8ORATkT2cdoiXC4QN+It+lluHkxiZeJ9DD5K2jQXZ1zQr4vxsk7MEdkQjF7wxWuyKd1+/8Rj1Zx40Fors7pzum+FIMx1mK2uW80MwfYKPdvZeLgti7RXWKo+ohMAAQVi+DN/UWrNiVWaJVFurSzIe0paNWZAzGp7teHzi2pXOO2UP1XdoGgsLBApaHJ7AG/wk0Pb9KhbFaFcIquvPT9/pAOFEmyzAEQEwy+7wXX0dWUbINeyO/iKjXAPGTs234Oj5FpDHNJRj/HsN6SQGJMpnPkZ1xDqZhCrVW5w8zt6XBa6ZfiNZRVfYy9AYU7hKZ6eH6DUOp096BjSrAo0SpPPoFEpDCCh0P0kGsWqrTdYyz6Rf0ndVIAnLzooz/1yQU+KJc6vHaHKUVNXvXdrL0FV5pNGE7tsD27FQZNTsK1rkQEb3h/dq4YctPA4OWg6yRYfXzdIwSV8tBjVu3Ax34zZLtFfStNTUmbJTUatiXetSP4qfff2iVRBllQeJGbY9bX7GTFUsTVGhSTYT6W/c+zOCAfAvui4+c0QrakpG5Nnac6Dy7L963GZmI0UMJEWLJ8oxerr8clmy8riVTDUFEKNcn6HwXgU3LcOdzKjwKubDJ6q1axJGa8y8QrMqfJwLnG1F3YH/6anAQtf3YjnjJyKIMtfxDF36l/CpYBftxI3wWP52VVHMnMCyAlZH1WFI7gGxBoJ7DMKZL0as8zz7ENpf72l5oLhsUFmOzBzQOxx5YvFkZlp8CtbzgbagkVNFzLPaJCXBCsqb1rxANi/UxVKaENZffpz3MC8OMI8D2SR/t/LTKH5B96yPFyp4EIx75TbXB9q4+QfcnajYD6qAda+9gBIFUyCrYHRokQnenwaAZuJpDaWjJuaBh25DTHRST38kUyYxkXSCwJfrPhpb41GN7Z8nb5Vfm/MR+C96lXn5oMVFhhz+fzpxHDaXCAI2j4eVJasKmn4hth59HVSPW1Arm7p8spktqDk1dDBAnkRsnQog7JB2lqn/LcWtotgaMsEMyc6Odsz4iXFbNQhaTOWSeNXbnoC0sekGUlwympgv/CVY1RcENnQ2VFQFM7shvVqVHr3hTCxjH2mFZwnEQE6NEGIEGVID7g/8M/QxSfimzv06t5FxcBIug2R7933T+sDiXGvVTH0C6vWxw/CQ/2hXWteTP4R+ZSiTWvJGm34EqLX391o3wQp7Hmrk0IYtdJR9pyk6A03X+YoDdxlWOxXPwDsf6jOKNxuINHcB/XBrWKCAcL4nRIyXanxgTFMw86k8ix8mz0QjaYi5nvDKHBZK/XozzqniI6SVM4AKYz638GRdApVIX3Pa2fqNvOPRITSNeiileVuRyHN80zGzlFszKJ8POdMQerk9ldMGLv7dnmywXZ3WY4epuimQ8dN8PhqbFqsOZi+ai/ss0jFasir88/KWnwUBR2e+X8UZSek+jXgcpr7J4MBgQt+X9lMwM/c3wMauzKmWa79LaGOig/PgibhfKse+2W9XMTJbtoHzesyhNp+vgMAbOpPw8h/kG512pI2iOl4ZBU3xMgySTpsiI1quJUdJahXSqqQpLKz+fxrniioipK2CSsxx75kY6lklFgLtoSlyATiPUsOh0rIH5vpAei15AimOJZTsCIQeiOnPUGyOeeLNAAYRmAKmgGOhZHsldSq0kgfm3d9/0jdMiBWtYcGXEvv37vs+ccvu9LyVZISEYFwfO2Bwq5hwj+DgM4TD8v2Evr4L7QRLh8qGSy2jj/FBJeEjAZRXUbpRLJDVEDlstwPf6SpuOQ2z0BS0fhQnMhEbkrWGwDd22VQZbZJTck/x+Ol2wT7tBFuUEK56u1cVx4dB5nQs/wJY+7kgYsXO+cgVcggow6pWL6pWsn/UMzVmAROteEras/v6eNYWzL7Z7GgnBTrv4+H/R0OO3jKoPinuKemc0fTcAIvt0fDVLGc5pQIAMLV3KfQXAvQa38idoLZnSuy4+c+nwFsx/AAMM4wK7x5yfH98AU1vXDD/svctU5XRhtz0603Tdswcf7SGJ4yacwSiMc1zWP2s/HJMx8RSsgYMwkz650m9sQpa2zATAFayW2o2lzsgaHdJ46SC+bNrlQeWZzeurY+v85MbCMD3+fRBvoBAPDxHIQcveV4RVPY/K78oCzZsJkDioA2OxH+LaqmrTmFmMe8fE3v7gIf8cqzuZxB9E3vQWh9KNRH66Z3/fKhEPSNkMJZd8cgxZm2E30NLoRX7lWRq0yn/SfhGyzUMo336KtUUex19mtAGRYdi+q8PZZVd04BPXpzRTLdTSXYHbN/epo9JnSjbrXfYd2x0Sk8m0xJZJpBeanSF5TUhLz1k6eKg/hKIj0aJxBdqmnXkwi61yYxQvsSggHMvp1QPAJGG72jayEDTauTW8e7GSgGE6/ufQPqwrNPzbyeBXmER6xa/ADbD34OZVIrRYgIG0ImRCp/U4Z587O5UD0WerHDbxP2p/VNv+Uq7U21nIhfTYakG7jfAI4ogBesjojqCjQ7aBBpCA+4P8D/8PyD0WvpvAIVciqYvj+SZOXiWKIAee7x/if1sQrw/fZpofr2y/PAWdOHTropbLrqm2owmyTNTDs8sxcfcJryLwwZyXR3AObYaek8GMV06sq8qiKaUOZf60cM1pz1f30SKXWvTVMPPKnn2hajUV10cPAuTLq5s17k5dmJYQ8rmt4URb0+d1ErftUjFttVA9Qxij4SaiJHasd2YtOxd8mREgV5aWsum5XAk/M9JWnxG9M/yJKyXqeALoqRxphMrjuOTfwNK0BBMSFafRrC1q28uBUltn5qGLBFMb5ZrarZcTMzU2r+kEMM/pYgil4UyYLgZgSkljEzy88lVD+O02dZSOFK0w5K0Ew7oNx+NicM1/4OqdCJrrOPEkRCdOQEpa/WWAn8NMzUAN7l7D727peVRf03bdchNVx5JJwNeBrdFK53t67SX0ztlqLombhy3EPUFlDxur7d+ycp/Pk6/YojmVjEvQxgeW7tSbmBnuQ3FN9RXcMhfJdzYoKgGjAhmVrX7hiqlK1ddwq6eg0+8FCweQBw8nmwFyfx3XXDj9cerwZZrvtvq5bAynrLJn48t8NBnPTjzZSGblKGeXz/WuUaeZdixM2qXYlWT0Ydo3Svq6yEDeXZOHHucyHVb38Xv+eMsiKYfU66V3ILnEA3Q44k5ZDjzXFBJ1v0qrSP0l+NlXqIHBI1Cs0J9TBQCzHfjcJF5sEDo4Vh4Tu5oeQXFMrkATnvpJBkIYkFaJZ5NM46eX6bU3ZPo2QksS19OdrQSkJY1LMdid+/iO72/cJR52xfKAyYEQ3CFOsJ/PnW85sl9aTURjpgLSDjKD5HALT9khOHqk+ppKwN/Qlso0a3Kc2UtJiB40ICujdnqzz9qPhZ/8HLcAZXsFYJ/RXHsSclO2b/vhuKXj8pMUI7r4Ec47pbZ1FZWoBSBg4wBnaA0BU1zndS8035BaqZGlJPRzfZrKjcOr1vEkTL4okWhCEdStHC+mrVyZS4R1OIlwVcwHT3IxaV1Ejpi5bz3X6vO0LEKOeADtoRfJ/q9GLhl2TONNssqhANXH5OQj/jKeV4Bb1FXYB49oP/4yxdD61h7GUleZuRxVkVDTMVKESlBSjuRACcOw3LbK5e5LjUoCKXG/pQPzmndDr9RMYnj7swcfAdKv5Rd7ipPjw+v6wN3gRZmN4dTxtg0ATlAZn+5ft6WFHzAX9yhM3awzhfKeu003BkLl6Gjp65s6ahaZPZgA8+0G1z6EJyWkVWUhwvKtI6ZGUKNDzYEGzID7g/4Q/RHA4hDYBgDNhGi9zIplDevtWZbbEpkBleSLMnUfu+Wb3qbh/WzZV4eLMfPceb6CG3hDAUIC3rQuYkceESGCyo3UZwB1PwOmaCTdSmOueq18ixFUUrbtKH/HmQpme8/F2rL8r+7aFgkCTafnU1r/KdCQCn/UZm6/UMXQBBGkX8uh5jqr7D08xiIK1iMHT6ZfPVY+jvixToa9U6d7JyOOF1uHnHh4zmTjNKy0jQH3iG0zc9OfKm8HFekYcr5UHeHaOQ4nauvAZywBG4rtfN7BFGeFtv/N62jree30fA/ZXFcZnSWmYeLWRNZSNC21TID9TRniJ4qr6Qur4zy/mgDY1OnPZ4idQiT/lp3jpfmhnmqHb627V0+TG0CrlYRKuoO4PnQwSB7+v9Qpp4LF9dC5D9aA8f+qU0VPyehiuM/OdlHA38ZzDYL5rhhcTGWZZYhw+UsCFzeT1dlPcBgEHHbwfBzdbXn8qqe7SrsalgDXgwYwviLV1jjb2TsigjvKQsWYc3jTdw4JQlpNlTJKwHRBwpdbxch2oB/DxddLmrCQzXu3KWgWS9KgJMnXjV+KZSYSPkvZEV1NdBBQgjZPJ4+CcKfjePumC01NCRKsZXliOU5HX63tFLhIKGOoIPfIIipsL9L+iLRrRhPJQIlzj1wQUj0u/gjgBCri9SJgKSJ89K8W+XopvWbWBZ840+Fbe2SuQbq03ijV9/7OdVWaHqiknNgDqxAYkoKbzzZg+onUkKvidy8wRKTOjFWXZGf8a+RaO6SlW+/QCeC7JNsCa3P05Tv13rObr5+tdi2nm+SBRxcYsU9RCHYlccD/Lh56s0zPN5HyKEMjzIon71EuGYMeYlHA4nE2AABXqcrcycqwC/KKo97UAqv0QE3zBt3kMvRFOnscevBgBB00Cnb22M6uhcj6aJoijzcMR2A3ywe+SoHgokmjo85oQ0T7YHbLtd3Wi/713dYEqFS16J6U67sdCGHvPIrbNUrMdNeeP7ZYwL3dvUduCkmDK6kGBwMZTWwNp+uNJsDsyAMl/8pONSQ3CSg6JbSRvdgTEJmfX+no1ud65L+acQHItOygC7Q9k5g7lMvh0xdtWnhBqLtKkyXF9W95vUJvsK013r9PMNDD13oOWqCrywzbSQ4LoyFbVT/r3rxAVHs5XUxm+c76VwmTFB4Less4X5HluyelaYioOEEscNB/Ktl3Vfr1ZhDJLVNYE7Dy+0NKRzJnxE/pp52FSNKyqXuCmePd3NntyfDKW2YT2VNNFyXmrKgGWbO+iavnxMcUglCjQ7SBBwiA+4P+EPwPyxrIDN1ypmmruqCTzurQtEUqYBno9X/39+h1jXBs675b1qMKwOk9/AhpDa/9VwHega1bATPi0Xm3ksxFwUjjOeZyiEBUNjRo0qmax2KxC+aPrz2c/GyTNzBTpSPnfT04niks5OUvhsqs/80PiFVAK1m+GFfALxSH19PmNrpX0URcQ1D/+IVAtdm2j42JrzRC9Mzlr8+p8DPkCM2ywjHUV2wjovz1sCUPE50XJZQGr3q+zKxe7544Li2bAM3eSzDJJG5kMejG6jg6/nvEdgWTIMPSW6YZQTxvxK6iDkBtt04ycGN736JHAH17te3zIbSU8QRyVhUOg7kmgjPfjiVZCRgMj+Sx/qsL37DHlIecQOYYRDHGuaiMnoijWWtSrDDbfbNF/n5sdZJrfFs1qNZqMvomR4lZloIXbX2BDgZRyydkAPCCy5N81UWyPee2H8KZEcbbbqL0lmdbk8teIn3ZMJPaWovrbV29PQyuGPyupwVnPAYOQO9V1Os1HL4UrfyNc4E3k1vSg9Uro2eyPSSeIW3SQcHz7lRL782GvAI9vl39o6mVa+61Y2ZeqwuMZWjb2Bf51XPQJKydP021kNLbMU0LjTa5kbVfv65CvsQ8x9ac+0W86Qym/9GYbbi6ALIsAVgCd4UBt/ltzVpEp/PHsBxPF50/WM7k+VVK4l0JE28pK5QXHubmQFt+v8lP+cEpPGhVY6pidmt72Sdp7/ggzM4L3p2nbwBS4IKKDZFkuH2fVEyTRr7zfeTdKu8ic4v7waArWQjdLQDqHzGkN2lSywuI8juewDCf5D+xLVEWkvVWoi6B9KgB+b4+GbxIgr/lasp3tWpQyzVz3Ky2//8ypQbB7MWtjbAzj7eZa5LG8nPhs15cWtyjPyExPK2UkbRa8ypJInjzK9nZapvq9sTbYKW8MqTE61o7Ga7SmMVRv/AO1B66IqTMQqnwGuuKrAIltCe13+nj6GRBcDkn/yIAzaGxwM0idHfi9j50vDJeDetWqHfD40L88eopnSAyCG3O70Q6nnyXFXltmTT8r9kfSGF4WERQ9iDwIUzHTVH0ugzQRkOlrYFT8L3nVuaPD3HUDj+6C3iU3+kzKiQ74ghY/6i4l+9vvBskFVQNlX/eFSG9cILETRxX1nGTOPtHuEq0/7H/jvcNylDv6NMMnD8OE9Z1qUfAByDUqgcRKSz3cY8nJvAXEbqxzacMgDwtdjtsWz8pxUQ/twqUwQ+2pOGmYP4RFzgIiwg5L1KjQ6aBB0SA+4P+Dv8NzCswGPu9q5EMXntvu5F3swk2r+2d+iGXciIwmyDxuhDCqhyiKvwWdZ5KfqTIGT1DJUSMktBGvLohgx3LgknEnSEVdilH95Z/VrEgDFJZI7V5zKfnx/I7KRBvRIS9tGr3XY1CoxMyOOiBJS59F9uhdB3sCmbPIEVjqgSN6E/LLm4cpLEBfHJvgi2c6KvqiZey3VNtuj6bQ+GUmdOyXw6Zuz1puAw3d7cyzg2bEZVCt5boWsjinFw0IPyrXSTTlF4lrKajv9PzXQEsq19GCH0ZYZNHnHi/VBBFJKGKfjwhROB4qEZki7/dV6qHOifKbskeKu6R8/ZsUrbWoWchmIhwc5hjVNfXhNEzqswUJAxdRG3kJI85S04Cqddy+wpnv6Xj2/cX6MDvT/mXHLfbaudA6KKxVNpnRsA7IljrPT8vCChsawpRuh2wPFY7mkPI5FjAWGbH8GlMkqGifYMoUYspLq8vVOJeNZXunAiw/tnQWumuO3IoeeaCgmNSrpa4gcuiLiZOYt7od5HdX4/UShotT5UsCpj1jZ37iuNpO0E16Crhxo4yPbgR47Y3uw8bTKsr2okq77PtRO9tOb2lqLUir5q0dDgaVKwrHBpeanKMk1R4LfvH01zoy/KgpTc4z3yAijIis4jiU2WeNtTBzb5J2lzwmYdZobVuEeZOtNhRH3HCHubg/53K5DO1WHwJdvSPb3uePoEHq3e3iYaxY/w7gP34gH0EENgmjxoYQHLXLo+cHuVbLo4jMa9r3b+Nup7knHL8cDofEob2t55TMGhw133N2eaUxKvujHpC62iNmOo2lOQjcJL/A0jA+yuz+2pr6thJcpKeZZA7hNm+TJG58jW0CLL2J167+oF47QNLAfES6+6OaJSW7/wtZeb0xsHx7rhGS38zFnIj/BN5hbpgN+tWYgyNr2I+lWiv3vXPVduIPUgjfmnEQGUpOHam9Xy5Hk7e2D9v6m5tb+vyM9SHGvtuMkZ9HkSi26xu3D6g7TxXKo8wyymjq9By42LCiv4P40eOYWh03xnGkV5CXwuTH/j9twzRs5bCIOksQl+qRo3lJlnFm4GRyf64JjLi3quNf7SNzbYQ3um/gwvVzW+ZZF2KkZ/X9l95lzvC+W+gq57mMNN4vZKpi/RchKgtT96mVnvKDDG4+R+2++JkxIRarLBJPENeTYlfW2YD45TFYWASmFAFy8S96UzRIgWA9RwWfzB7slQXgLnk1KNHo0OIgQeAgPuD/Qz9C8Ae2iA8xr6DOVhG5JtnWwnAPPyp2PvQ9leyViSzB1aLZkZ9f2rFb01az3xqYhxD8F/NaWlu7i+XXM8kbHdxWfqTpxFPotP7l0Am1pa/iC83qJUFjLzfUp+dpT11ZtzyhEC3q9d01kxtZxpJXpNt2qa0cg+IPcYlH3AoHSCXDoTntYnCWyVfX0qpi9PY0cZCRtNfY3qbrh7C3DGlaA+TeFRuai5AosR1XRZwuySYrWo5vxO2CmBAy5x54ZMLrFEE7nQPg/nTaQQIMG1cm9wVFRBHaUeyCg/mdjLdpkFMOOcdHe82mIx1H30eFZdfeXJmXVbq942DLBlBhY+V7F4XU1XLHifKbBqIiz3J5kwm8iGJj6kkeNUXS3bxspAM8n+INeG/iEkYVF/Q8HHHy0zCzkgEmoJOmk8pK4XMVsfZMHgaNB4lSqeuBEjl+ho4vq73xm7EEW/Ee0tIMw7Maieqq2J2zeA6ubaYkZgkHrcDk27ARmInEg731N32YLjChcpofObJM8oDL8DBYWbRnP+38VkK60iUQIbdXXKIhWbIx1Q4MQKBpSwqP6j3JzRuC4Om8HCvh9i5xgEalq1yXcfkft3Op9tih11aLiaxO8d6jHvRlRuvyvSk4Gjo6EcEQN6fZIIoTutlQHv3coThhJMyd38z1/ilE6YQlxho6a8vl9irOGDYno4w47BnKKphGSkCXcFbm8HE6l6omYjyKSiD5fSm99pRdIGLx+V4CArwHt14oWDRYsKVB9d5WMFoi0xPwRnSZL1jZGVraVSdmbTTZL24fSDtV0zCpg57JwWcHyX9ix3CgCWx/V7YO2OGkiAO9kj4dDSTNRjs4r47TbVIbSVj9xXFbcrfkdf/T4O/oBsj4lExsspCmz9aylj8MNaBVsubtXU/jwIrGXf4XQ3mkXuSwEAq7LTUitv13HLrDD1omdt8S1Y83eTjZUGekWeMU/nk7emlKV8eHKaqe+qBeGhZPWL/Fzm8DfcAvGpiaXdWW9+XRgLYLxusH+T6ZhiUWfXZCw4hJZZZnAea9ug3l6U1Ky0bGjfyMzqQZfhWq7+NKqgr4AXIs9A3l7eZ9vqnA+SEibwFldM/lhXcDaEghG+Z8p/F/nGUK6WYBQGojFt2YBReXefC9Tef+Btv8jm002elblXPPLX9esICgT1OuKK/RVI4KdgSacfHHqFCTKNEH4EHvID7g/0K/gnBqGaO33N7w+QPgpbHIeMnKLWdutvIpdvFyz22ehNuR3Z8UVInULjtk1t0148ET734EXBXpAqOCQv8pqFCy96Zik1OW37NjvFXU9QI9Vxi02rMHF5jtN1K+YmHh1tGgiGh6Ai/QVL8wwN6JpnzvmG/BZ4XIxloDPazjg8tEYP781YEO2UYGeY2HR702sORWbUB5ZUB9Zi3OviCw9Cdiry1WcMCbcRLg5oR4MB/SG+LUDTF3IOQGNBQMZnhVWoQtvKkfBqEJvuc/+tYDrELfmUFndYVoyjP7bfTpM+eEHUmS5KpFHkqi+9fdRL/YIbnvlRht9+hRTTbbfCtAZJnY0AlJ5q9Seej5Mj8H426Inaa3HcrZTFcjaShsktJsJ8AYsBcp/zlTj6fA1BZODCpKgoPc9jrlev0R6Tais3PxvohBILIcb2bM9LIQoQpY0s5jHkeJ387fsoJTQzcyKrxMI/F3e/JUJS6eRobT+utDa4mMr9Yymaf93INlUu6G+SbDAXh3H6qzu6FmjHmxIXYo7tRtVh4wbMyh0kUVNJm/rv+Y5nEWWkZypbOSeyp3+sc8YU0/+nDKm8Bq5TL6yhW2YCFyqc+9n/2d87hJW71ZBmsP6i/U01ou8bg+HOxmPjgwKn/y3//Wj2WFpb9NaAmesayv1MsWhhjV/h6vGQg3FRDqlKV7j2wgUz+fPtg2Jn8K2+kWwSfBogbjsA5ZzysQtDXls5qxkv85wmhzkXNXSShcAimk2cI+oLWAtNe1ci8L5ilUCZov9PxcO+fyYaga738dYAQL1YnWDwwpZhckUBP3AUeAasIohu+bs2itkpIo5M+G2/cTPbAWnJCdgagV8uV8ie+7FTesDYukEg8p/dZPu+2z/OdS57uFxBxeMY2jUtz1eRjHmr+nBL2qpubnxxmnKzPLmKMEyHyPQI1MJAJ+yUqVSvAAK3HdJ4i9FsCTcjM4KfGki6pXQ5p7oIWBHTZDgDYUhrAISOafaZ5s5R1sETo0OvU8JZFupbKlbRweEmzTWpHkZOrN78o9/BhAxt77stnakopkal0cRebyPR3lOrOQRabX0ZnzFfgrHshI3GK7FhZDPC8M492aduQabfBTedire5XH4mbKYsWarU4V41OKo53alfayyx09QKgwJrlX7YW2U+PO2agyNZdveusXMBwVhsE/Y8eggy6k2sAxT4ey3YBbxArZhu5orrH/YnzNauuvwm5tlfFYaRD4i9jefSgegqPlu8QFd9GOUXJlWMBYk7VCAHB5XM7T9jrd3bl7l7JgMRe5TgU/J5gJ2rT4OHAWkpLEpmw2eiOtWP0WOmGBvW9iClTCthHemaUsS3S0VrDDzK0QPehlLLuiKhVtJopwfHKvf1JXdQnE4ENTVZ5cLPio0N1gQf4gPuD/wr+CVmNyvNA7IfIlAoybK5jLhXUXP8kGMpgRcJJrRj1xGS358QAKPT5C85fXpcSRX7bw5bD+o08uiKmwuknxuFSQ0VCljidCXR/ixMrlhh/BuZ4fjoP0AT1RRT2JSzoAQETIVKc40HaQXFnqP0MosF7PRQNS/2JfP7wHUykYM/kSkFBmF6HtZ//txr+zz/YIgShYuDhLh4rT1gn//vteTngKGddqBzpvsL12Bqb6LION+8E4R8X0puZjrIhhwBfHbeiT3VNl4Rc8j66DRvXcmdFwlSPKOxxtCNJb3yumjLcn8dy8zE/ky+kdi8WTzZ3VpzeRi/kjxYmVLWSXZfFYAPUW79npAnGpDm/9ZmqA/GMOJVj5/GYfA1Q08ImKEBMDgCckzqJcanEOW1Z1rac/m4KQInUoQeYrvw7M3A3dWSqGssEssRBTO8qCsGTXlxzBxvZ7QUW0cgU16WRKOihHWqk/fb0rEyce28lb0+Nm7LU8exELu012KTzvXvjzzGGelW2XsJw8D3NPjpXBKU9SivH2eg9EsqFD2Bdyly0y/OiY05ZJWOl7EYuzlq1UWF9+vhMsK+zPPwhtmknO3XASZ4Tso+nDFMVck6paLN6p6MgPDW36HJgPlFc0dy060/jH1cDEoKrOPWhkvDYAuXSQQZzfiHvYr7aE1uvJp1q0rTiJdexkjxur+4yEcK3NQfzs4WDkSwJ2Oy1G4gOsTbOciUy05r45+snwEnLRMF3unUadhZKI3xPRrxtoqgjOCQFOk7W/Tq+7LsMtlIUplDO43oc1iQsbsLpJkjVgUWtYVG7nP0C6L5Yr3kSyOhEVC6KKbTB5eG2LRoVGIltTo3F2K1Oh3QaxMXO0v4OpqjIb3D4Et6Dm8TS06EPqGVO/9ScldnkDmLC1y+tA8C0qRf/yQyACU8/q1m+65n1pcJqKbf9BkyOtARVYBrQfiawtgVE0ZQLftkXqJjEc14l9DMYPY43vpMVHqFnS3kGZ94Hhpmrrwa0yFDnTB0HvySlaJnBroYsz/G5b2zuFBqQmfhqiQiNK04IYemq4KLufAVtyU0iokwmSi4UHlEulQsRqvLnJn85lcobu+FpsbzJp/yh2HU0cOgUSdIyIHeALBx+QDSy3sTHUk/8io6ZHPjOWhyZK8nQ9rp8qfGSMRl/p0kvo0NfgQg0gPuD/gj9B1Ixdtmom2nIt3Nf2/blAvGTV5q/hvWthy11zHRbEPAPqzClwGqBUrFzRXNFB8m0OVNIDJeqxbc11b6cwQwwgM0tcibKuf0tdRauf7YRyAlmt+ag0pXZHNSFOi+5/dF20wOAPymVh3+ppRfOddJCbFdddqVbD9wxvqZKPgzvz8cqMSwpN9ayWDNAKi32i1quYt9tuvBRnom6RGMQT0O3AU42oQ+oPTWS9TYVdmPxAvWb639Sybs5nAMyk9AeQWwxxiBaMqBlWTZiPe0JWJNMii1Sy7yN2vl8FkbTOpwmPNvGvViRb1GTz6MLMBoi02CCXn3j8iIe2s3NCIy4CsFuWUFE30UiBTRCni/sJnub6WthJ2bTkUDF2DcDh+1DpuRQCDa63R/9XP67dlP0QcAsF9eoOoDf4hgsvcdRENLH9uVQc3BRPw5z14TfDCpqPkl/EJXlTNdyJ/CagpMM4z4/l60H29q5saxZxn5KmSe2Pvr7htyHUwbsN6q4yh/l+Kp7K8mz03ZQ4E+Ahnrlyeih5mq4CP1fEYTws2DslRnJMiU5uio286zX7PpcwO8kwh4uLfMCjBHPbaXiOmaOH8RddumvvDQpd+u3MjTHOhrIRieCfBzH/ua2Hpis8AwM5KLqVT7B3u6nFxTuPYxpK++XgCCWGilgy3OOIfWCOADUBcNITRoiMCE1XVGKkzWpRGdWeLg0vVmw1704Go2kKXStMT0iX2KzaW4Zv9dAgsxX90LB3paELhp6HFGMrWCG7fxmEnJzF+cjqtOEN77Vo0VzVY+tITJ77ffAqi3JHi6KVx9DoXuYZwPJe1dZRobanSmB9epo2yKdk+R6LRchdOlSJdzaVVe4Zwg/V42tia/5WuA3vvDkXp/TtCyATpQoN4laa5MTu5s4TJ/JjYqIgJXzyz+8La768kmYgrz75+7eQN/rEfJQ6cJ7boANA/hEpCE7lkomw5DC4if/+gRP3lf3OKDHvo0yMYNf/fVQNq3zWZID3kPrveuRgzJprUliX/adhUNa9b4mDGLePJDgDu8KzpgOWnSxCrLwO6PP9C8M2r3ILmQbfAVldwmaZITQ7pd6sa+02udrIyk4KAt9QRDaIbbFoNPxG1lOIAzCGs2HjD3CIUdP1eKjQ4KBCHCA+4P/B/0IXokYPE0VFR7/RGyZ5rhkgL6Q7pPEjsswMoH4I3/nVgEYM5gtV9z3VFDRF0yW8hu4+WzQ3z0DVs+MiX81j9hS8aSUdKk5pFI2GYpRDEajldUJEq5Eb4OWRBFIHGHnTSF0Cxnbtdst7CkAjDoF5foB5PbQ6ZnkkNSzI+fm3H0wT8FgRZ4f+o9uTfTQ+oo0ljXygVsa9Nziyzsk7l2AJsVt3HK2FYSLxsrniYUkgqCKc7r2gX+0RfxWQbWueC8prz6Fs1oj57oMvYXpEW7cG0+A0uCedzf3r1H44+pd6w5fdTmRMeQZArLcwLtLB8vwYY1hQdszxvsa/r+smqFh7vd1dKq5o4edXPEaNxAUEPy93CReG4fhspQzEju9nUA2SxPBhnSZ4B3wOl4r5GSNKvo1bCo7Me8K/9+GY5Tt4KpjbnAm/WzxO2ViBsiS+CXz/Smcn3BliU7mDgDtePU2VE6T6YyDacqb295jqMcV5UE6Kjagy8AVoMOy6jDGNsOpM1DZBE09O1L9pkofOSqvaRAhIaNX+pm1xsBoxCvo9xQIlRkG8EgYjQJ7qPaI9H4UYrJQUIvkEUnpbyjmzpO8uoWpaijlDjfZ0gkHF8rltM9XsabtyvlYwJZ0+O/jw9RuE4Od+JsNwfd98r9VHAFFc/e4Rr7y4ACkCcAXjeROA1Crf9Rh5K9sJHaAIPi0dRy6W+uhRfgPnYnJQgIXMMfAq4aS2XA7I08tcA7MzhMABpFv4ua6qP7QPnItB16sTDOz2bxsVrCTnDX6UUldxFMGKaFbhj5nAd/M5yaZYB+zh6I2VUtal7QSEgnLkB382ezUbe0bNyH9rEBAamrfFq1mcW2cQQrL7TTgCJep7Q0f5vwHsLf5acs7KZr71dZLLr0kbr3c/nBVJnQ4CU2QPuFpEaQIjNf8liRgzAls2NdfdYu8pAwmgDx05oD0me4tkWt9MEyViYs64Iodsg9Eana1iemSkOHAQV0eyBbG0e8jHE/cXnMCmXyzLKLi6sjk2CwKdIurs7QKPBcJrHYYsFWjBq+Hn51q7teFk3jrteSk1IAcSVQ4OrkyS2YGvq4rV319tQFaYtZAxx5oq4LSV0S3qY9hzBE64OAAcCuED42VUrEg27OjSJF6HSibS+z0alseNqvMsS+Iyt8baX3jDnJRqxrDmlFztNymPCo3o0PGgQisgPsDUm1iFL03DG1DiXlDF0iP3hwHEbzJ37bR2HOj9EKk6fJrxiAPV0oK52vsWH8Sh16s1ty32T3AqCMINF9hgupMKBNqIfnSuv0uuVJulZRnL4oKjU5iSFvy0uCzutsVX/TUaHHMEkrRYM4aUpx2vpn3tJ0RRhOFvxtFp73/IxjEYcRiwfGXg1hI0X9B9jD6QegccuozEdku2ddgsdphR/gY+mMi+FK7baj+nWFOP/7Tg7sbiSNdOH9IdnIah8sCiPw6Dk7Ka1AyEbOFG7BO+hRxioPdiPbxBGqMEkvIhoGKln751EMN80RocTHSTeFN4lo9CsJp/siWBhNjqpV0l8xYfChFDsqkkavnZ8D9+OAIOyqoniW0EtigJEaTrkAkjjDkQPhijvawJDKtkrnoK/t9j7nF65MDhsPiEVwecY6+HJhAf+rtI1az2OtzbryMFu+DL46Vzh7zK79GGhLwhmci49nRC0OjI0L35bLQ6168R1ItxYjEdJE1acDvMGj1uf/+04g6zTaw6igdQA0YLxUBo9rincyEeHrUUa1O1MEEBk4g5fbvIcFG3x5ZJVhCHqXYxMqTpmSY/SYtVgRrR5jAfgNMMp1k1LZEPxiMeDIfuCGwJJevh/HMMca6G8LNLaCmFg0mqyB/GOD1222BUqPMkxT4oGxVF7s8C7yKiZtVaBH04K3m4f6NIIMiF948kNLgSvLcYn+IP3GU/xBjjdC0QSK32VYpV+tb/brPIPuhxTc618Eytwb225Tu20hMl6jaQX6yw+nuqul1ohIOsQKJKPhDpXmZxnUQtAPwglcyq7e2p53z6laXJ8bMzc8zRAk19eQggeIDXGL2M6bmH+43zFFP7gXRo4tXVfweKvIJO1cQtUnzpHDfVNO2/0DqS9IjyOnK+05OSxavPTbm/xAx4iEzThyupy4a0IUnRfLa0j5c8G9+K2W2Q67H0k5ix/7IB+TdCZ2YluQI/s6WxX3BBN2QUymWhM/HiOlTJRGzLa9IDIDpaF/pYZcvTeKLgvmYHjoakAVwkbIni2PZpkMR6moQU1E9EBWloDES+n0XtWSn8ckpyNd3cZtObFKyQQOIYMaRPxyn0ACsY7qkOpEPyZ+PrnuUvxWWOZ15DTlfD06t+XZAyQHtWdGYiBJQmkhj0dOe3f8IF4Cl2lwfPIT83LtWaFI/gcvUV8HkKw2mEz/42f99C11j65FmCAW3l776TfJKPwtZOlyaIRK2/f8fHnqbE6W7+drViK9jG+ir8F6YeS2jJItMPhhy8jXprp2Ko0SNgQjogPuD/BH8EUP9vJ5ow7KQCMqLp8XMgGanlt7jyqnafBALBj70gXj1oDrsyFZiJED/PfVWgsz4qDPRy5qhaYcFONbzcStcqrYca/WOzbjec3zdvqWOyznikjk2LZ1sEUxmo+R7fKvNUDyX+djSPBUjFir9mQb6QOTmSKm8X/pIOmBMPWIbWsTjWJDsA2hcU8njyV2LJWcIEjOzsl0kC96T96JWtr01Rs2l8YgIct5uPavU73o4sHjCtxVW82IO/LTo+q0CH1NtW0MTFms482a2VM/Lwrs7NlspdOrj8a9akxFkDHOs3d1BVu73naAohBJAJdwLotp9Zif4mYjkjI36/8ds0n8IZNMr7Q3wCao1M674GKtGXRLstmMZy1SZNHlhxBFR3eLb9ZuE0XpCU/f8FUEGdYKcxDCC2MHmehP12GTOvjd1X3HiXrjHJ/pleONIl3BGC3jge4kgScUVejQQIAkoK2C0AQMtJi0vyYzOxnTPUSgd/qrh71E12+RhPiTGEn8jKV6Obss7SOHCBLt/1LfZ/LSoi3e1CBovsKQrR1nMr+bhsu6+LNI71AAwTKCzDGYRv1ln3ae6MW2IC2rcHxy4abigEazNkQMGyNa25MuSHG1PSdLD5ZqemU9tPfFCBlole4AEQCzG8AhsieLyw9Vthho2vG+Asw6CT/zZhVbc3Bqb9euDCh+VWRKZ3kDi7HHbSS1nsvBsUB+8f25/vziUutUDMYv++CgA903+vcbK29BTPoXLvowxwErRUKXYiUiti8fyIp0tQg2varVWEUoJtcSb8aCFxpI23z3ahQrTiC3lrtmLdj5oPUDIvUgxqZCgWCcPiA/RWmmY843nt7Ad2ZiE4m5+GMnwKz1V2ypo1vntoKgyHZOiDdm12+py2/ol3qXsKCSn9xJYXx9a+tZCem0XWw8VnzqzN3CpSW5FdVKoPS7Wsvc6U8wTLFDOmqlj1Q9jCx/yTy1CfX/e0G/NztDe65EMmU4GaWpUVb+zo+YkoCCPMZyKpTtyqcnp38z0237JHGy5kO1ARNfRdlvn9Hg7fDqYSejayeVTJrgLxM7UPTfUC20SGRCEGUo9vgVPHC4+xTc8kztNb0MwhyrAThGi9aoIS5HuLWhbhMS8gkEPZVP5OU4FBLFnDu+hiVMRxqpDwN8o2C6iNdAo0akfNneQhjmTmzqGXOh8Mv8WEt4OIlSnot3baNB9hG+wPc3zzDfkWawPmXN+Uuwo3T/BWCUBuIarPop0l7B9OEtWyLU3DEir5TKmFyuJ63tWSBAJuzlvib5pO489r7i+0ZNPncme8fnbBQ/McF13wG4D79S+sszP1smMoSJqD7uAWDyDfmNGG0kreBBoSRUve2R/mG9/jy6713D2dxz2LiiWB+WuX0k4w98mMU2idY4WOKLlKra+NWH9BC44FL/3K5ZjtsraxWxd6FxFMfbBrBhtNg2GJi4Rv9yQw1Zc8kVE+wmMriKNCM4eDJ2r9zWLMf//7GBbt+u8FYF4Rk4G2DSMRyZ+RNEBoHXtjBP2cjK1ZgHXMIu8+vA9i6NEAYEJJID7g/8M/CjBOwkqKr6CLV5nsh3HxLZfY5Gi+bcivegR5QHP5YUb1bnL0hgBT7e6tbJ8T0X2GG1wWTCV+qm0xKg8IyMeq/rdEkUmZhecFNGkgoWqo/ubRrG/9zRqHlik8gdAVsS50jR5GLdhfOR2LqEk4jCotGT4NDW+6/ClNx7IjTbcXkRhN+Tgcb2cGB+rbtsC1yw2dzrxXSYyC8IppwrdbL1o0PZo8axLiuDd3rzuWfV78XFA+8Kdha6zL1Z7HlwVzCMOQCOMkrKyG+TBAb+eHpyLkrFausv6289eseaUlUrJtz2sw0PgbYecNvRJvOB5AwkddDJqhh0vc68jZhlxT68vInvLdSpGqR7D7SqtHOqRDgPrwpPlMH3c7GvgHE0Vsw1UjhSlniR7INLevBoYlr1NlrvKXaF7H1/Exnw0Hkw8DKFJrffAZV4ySmB1H/cflUh3F1g5JLNP/2DRQCCvh/9tK4trELurdNntZC/bquyHEJwoihG917i9AIhAh5MmlOOcaibBRwyihM3lIaz4A9Fdtiv1MAeSRaZNIIFNMAt8RZ28yX9mCYPqJfOspFBi5QCpZeWvfdE+o72rnzSsQG823Dv3aTn7KbFjeUqsmybWXPK0oNMKndhsxLzbxwX+6glTiEjmhxBfhThH3pgyVaBBwB9nuyJGqpVVgoSstEYkNo65HLe0IlA3NeoOtTcwDFd7otecyAnVUaIkECB9es+jzFpvnvbSEFc0xs0dYJuOvlmixpBvAsZ4OTt7CzuFmzvNpycGhMSYPD30sXtl2LH3yYuLoMt2BaB5U8LFl97ffFCNFICvCDSCIHRbbi2+HvjRlw7bQjVCjGjYNqHyXleoC33hul92c88GUH+lIzXeDvv1RSnasoMoPIiqrsJYK++Co/wwRez7zXFqF038rzWVdG5PVYjJotFvwZvsICw6Nob3f76XlTkM8gUxq11Fxu8D4yB8+2BRfi4ci7WuYkQFtaFkL7WmO9zuu34SaSkXgEa2HZS4UwHa7YgkJ14yvdcLtOpK8T7Xo3SiqDV0IF5fp+uEcvAsxtekipnIPtpsjlf3mUYHWLP7dwmiogdh9Rv4OOI1Kq/1ogdug/x9UY3j0yyBmDh0A5JOpcs1Otll+/oUdfFx9KzQflqRJNLbmdG5LYCo7/0Y6dXg/RFxdeslhmtqtXO402gyf2VjN8QNrTLwDtnKhgiZdbcqtv66dHR9rSSaEdckVsDWO+T/tkMCnP0WtcK9x2t5agbBNdBf2CbunSsYGCA4xEZo9dyVnmUxODqBGqwpw/HYqy27CSUwBrunmJFygttFFC0e3JDbfVHLpWY3udHT1w33f93RUxW4lXj1uqP0juE7o0QQgQlggPuD/gv8KIV+ivwcVr35Ejl72SBrzh+Kig/Gr+zQxcRIFY73yNQNYNa8t3ZfRmiVDAskFmulC8IG8z+f/Cc9Vpwv/lRmbLtwNAGIkeNa5r0cg/Vxz3q5cAKB6IUWV2cxECQWz7atoOxAbNtuN9+7nTmX4XbkHNwk6h2WFqgZKErYuDlPssI7W7uMkP6cf07LWPmfT0Hse9ZU7IUWkJKkfPvqESxuwXcskJfkDpMJMM0cmWNeVr7wmJBRv6qHgQOU+kDR816ghnxrzUf2fXYleZwGlMKSz6eSaK/62lQheT77DQKikw1zggY9OuvLvywmc5YiaqqLzaSgVrxph5vCVg6Zh7udn7PMWOpgU+jBOuXelXTq2h5A5+SrkqZTWi94doJCsG9CDcMHHmpXuYpBkzB5+UKHlZqEG/3fRMzmBiuPY4raHXERerIMDqfjfbOs5QcuQYzffe8Akh9lbHVZ7mbu4XiKnpcqzfDTE9S/690Jh3KSwkgW0HgrtZpV48wj6U6IsIbkdiKYdgu8dt1UT5OzRLw0cFby6OVNjp0XDpVKaYptquqTpbPtsMskYuu+PM9eOgcr3LT/hxQf0cDaD2lQgn840QBxWwUIDHmUOHrhvD3gdo5WB/Jx1+n8BoGA6+xy2sii4jx/yFuaF4lweE8i6VZhI58kpCrMga0vogwB6mKegcaprVJqlA+O+Mz5eV8OlDQO5BYCH9IC3LUl+fF1Vm1LbCyDjmVALiCsA66bCaFcIacVIz5xmHZsglr0hSxpTJCRuU6MnOrEPfxgcfLvc/kjLhc+z+mxuSt7daqJepoiYK0wNzbzNy6m5CaDdU5x6GxN5ofSBh8YzRiyiNFE0Ulg+WVCvH7AedbN8PBMvLYMs+2Ph+n7RREwR1gIIQFbPrrEfzYkwS1nT6p2kvXhMwhnDAN3NlG0Td74dR/mv+ijWdIUF3HRAgztfiNV2MywE2QzakaSL4/Ek4muawcBiNIU7+3Vaj9JYeBO+DMiUCyMkZY3W6xFjeo3e3rIOl8z42FTqVohAb532FfxU/Ss7VfvwOzr3mNHlsp7+pHketrUiZ4cPUKlFxZPA3to7SsXK32vYAe35TB6hy5lGlr+9J93zh9SC7H/92KkcjKrK1j4wdpxm9w7o1M0kBSNTWlmVG+/uaqNxXuM0oF9GP6inTZ/L6uNeEyv1W7WQlX76C5WmpYXIBuSSAhr8/WAHeD1kxsUhgowIb5J/Z0UNnjaW6mlaZ0QyAAZaAI/Srv6xjD/ZQd3YN1Og58FnqL9pdMH//BHnrJUJw8+UffUvVAz/jekXy535IudjxpTniwP2msrt6Q1e9syTfy5SyrLP+2G7cPNkMmEh3n9ELqtFCXGLv42DDDvCpuYkoqjQ8qBCZyA+4P8Ef0McxeZjV7giDhp7/ieewXHb/96HkSLacnc0m28sGodFPnwEaQf3ngd4liOWaN3JPcl2IKdGpoyodGfE2+8rrHm1+vLB4VH2PD9VxcXlUy01zbgasqC1TdAXqaUfvfDoBvCqwKVVoeZsIg+BhZASJX8UYY86MCQA/O3DTuy3j5oTwZXTgnDahvEJrxwMTEOcbwuRoAFLUpR24xVN3sAJoMjWqU8F231HFFYQrrnEW6FBVsjgoeR+CqzFFkH1DAHAZ2TI5ZarPgcmpiabQk54XRuFa+ID1jUl7aqnGSiWBJ4+Xq7b8OWbIkollqbk2gOkp+OIUWKQMIQEnWnVdetLyp4MUayznSJXUkRwFqOY+sy3BsEEXcaA2wmP0RGsiCYyyfGPUi0QjQ5qE1VTn3ij6ygZoLGwvn6oPgtL7vy4J22EgtUbHcf14vODAPQkWFqn59EZE955DHh4YEGicfPfouKExMPPW/gGSLK1W84WojHqzZ5OcQ2SUg6mRAt95h+2t7ci5gK+P9uAEfHGqgjK7cJDIKiQF3Qf7XLnF+OyNnsbYyuJEWmq1ZfQkH0RzWzlctN0FbK77YJmac7+ZjSia9/tcTc2z+7pBcGh1Iypl04jshYSmIpMikNzegbtkDofMP2ljisf1sqAhMDI8CvpGNzpI6krggemJHndNE2PtVJL7JiNiBnet1hIH4KuGJ0xEnoIxLNwitH2U35TgXFdMtchRO3OqRpZdGKi1mh0iQs3RhElwF22cV+LSpgUDD8KyY4NKHS2ym9W8w6A/Nh7RbIiMR5U7oEG5sWLJ/rXQqQ23/BbHY7rVhCWSmyKd3Vfc8Yt1JCW9zM1jNvxXkBAZEANDAz/1Px+ulkMYEkdWs8tWQqre6X7IVWGWReQINkB/OylNF1JxQFSkvthzpG7L81FzNUz8iE2+1DcZPduTMpugXAodrNhJaeeLifOgQIBpsNHzmxDjOHP5oO5M7HAkvHAc991tc8HO+205I8qIWxEi9ssmrkHZq+M2XhEEB3aHqEucd+lVdKD9X8DGtJ8p6GbKxTK6azSfMAqrxE47dy7Jq9/jvh+jWcLTIw7jGIR/OTagnQ+OvEE06iTcEmdUno2HtpZNTK7Nn9CzMphY1s5DBD9ar86aB9aV6pQdPhBqFGQ1RzSeuHUZSym7eT8C+vVYnDiRwe5/dFHt560I91r4CMdeelIcTybqi3y1Mu9104DoHu+uSrlBh6KaY/wBK87mMykD8jw//MppFqeLuon1kWmywv0fRq0NagfAKwVnIBo0OigQnYgPuD/BH/C99Eh+KvoHgaqL1t6RWRM4zF37yeiv43+W+ZtZJ99dofZc95fP26pVe9oW+NvTsYdeZHZin0pQj9aZ4ejwEyPjM8Z1gT6r+ftEmSEaH99RkgNzVvQyRFELVdJjCbChzvT7ZAGisq8742NWADlxAC29zsW0l9Lq1AqgV+lyoLf9OawoJ3vD1+gP7+yr7f1LpJ5Q9roTvlm7nrNUtT1mAjf4vlCFKOxnKIpU4VL2EsQRVCCXtbzGAk4xie8F7o1T9WXETLHyD9Za1LWD3iW9wZLGnTB13Iy8hqmQKP7f4BJ2dINhvueSZukYEAMUUC/t9Wssd9rn0LXb4krdR26cFd67FA8Ye2cJDtiJcPpjDKjN7vvS77QviEHWAJbyTwrdzBN2BVSfj9SSRi5CGuMyHXvACcd/QhPKnhr3XULYGj7USVxX552JQ4xHkzK4/gEHpyIYlQ8J5K9OKa2hkN34ZywCmgakheJ46t7IYM8Vk/1WKXEmITpfMOn29vLkByM5tTfyuTEpo7HIh0IsLQTzffx70G4zK3c7BWJ8U2aPmz5SRItWp7RPHCRAK1SMYw0zyZh1cgjWMDvZgWfPYDQPm2hGTOzCbXesQxAmReEV0skiOrJL2Ikv1y9OqZejYfP5lkEXqZtltvkaFFjIBBYm3GB1j+XAq1WhW1lK5QlCRkaPBntQRqnAudeH80vP6KC+TIx0gaSLF3yFWl1yex6xBDssYH9I1W35mrYfAYJaaRXDMh1dPIb8cF+vvS8J8HP9RK08TkMDvn50DLJTXts5k7sPLpm6GQb+W/Rax8WdbLsxPkYMCbMR8zzzsh4c9CZ46TBjYzIfuE2V4OW2f51RB3KhI33yseKg6vXMttQD8rioBKIi07Vh5bQRVKaUR9uEbaK6nwgkm748xMTep//CpXxyQwrELLQp8QxxqvtOsYS+5+wHxfJSalORMOHfkLpFGVz2ZvLnoNtNOoUH5IWjksDro3+77puil3V8asUc+YJru9a+d07MSB4FhlkMuohrpD4QDUIe/J5toiBletOPSNOHb97vXK7oGZOpKZM9ByMRuM9qO5B6pyfAeq0N5pfQ1VJ1ICELNeuqaw/Nf0KWihIg7lq4MRvP0T5uoD1znz7q+CyPwnVLaX6J6jSVY0bfRYUHDkxvBqbWe8OtXpNsJxYdTe+HIfn7tZiCvbmyt6XmoIVXsnOPDURmSZ8nUSLMueNqtBip817ml4o0PygQoUgPuD/wr9IRFtYEBiNnNDZ2eve1HrujcGgWsLHbGXO6nniIS/yA6DaOLy0nBYNTTqxPUvjcvJNv4B4BDBcLsGGM7ku7cRQu8NtH485K1VV7BfTGIWq11Q7CoD2O+1NSHRqW1yj1ZEjcAmuC/v+vi9TMPwQu/ikKlFrQvyQdqq4yPyHJ9Z2VlcbmJeSA4U1yShfzdJReJXHhSwMUm7HHqDFQ46WKp+LPWiQgIsiay+EzPbARhcw1CSmihtrtaQmF8bgKtrA319hNPn5JpYmPa6NJE0CCkPbyWfIzIBjy9GwFyeZ0K0eYB43JjlgKemFZHsIqoBHlGuW9VYR8sv11myJHPxVMo7Io/NYLelCJqtWTxIuSQwa8txhxGaDfMm8k8+vxqllVSuzzfoCfRTKH5+ZcbfhsXyu65ymAzhy53ADTXKty7M1FDhWGExB/NSsEEIy/mLZDJPCZxIMHJIKWeQDWxcXJnuIdHtkrbTsM0x1Ikz2yym3Wd/sXmlXrsPt73ZVbqvi4Wv7PyblobF1O23rmRHR3YSZPaoJfRZOhx2KMndexC4SYwQEn3AGWfusBoG/Q346Yn7NT6qq9s4lGdd4VWG11FGWwXhXPGYQlo6rgfBk8mMx2MxmQHtwen3ilzodDDQBVPWpAGXx4sa3Umrxtjka2Yo1c1qog1rCrB0sg0G0KQb/Ro6GGAUFQ6rpfduPUhgrfp7BRPY83nrkt2mhkg3LwKIfuyItRRNLF4DrCyS/6WrYt/84xoeJh2KJUUCpLLeDq7JJEO372cp3eKeo+0wmPCrd5O1d7NYCFFzVpTtIPIU06bzFbmd4Wa2+8LbQHjs6b2v3hqgd6kP6v462qfXFR03P3wCK+PAYqFEP6Izr6HAJ71ylfOlWsMFAOEd6gbWl7A8fws3VtrE/DEedLVPiNuVq9LF7oxwOHTXWUw1IbGrUupyfj76uy2GxYsRrLehWsJ8PuuQ/DPDsGopI3Zdp8QkF8a2Z7AaK/axzVKsY+i99JXXPmogi73eZaIRqbkmQc5dAHqiVOQvksAXw3JBHyxIinHayJ6+ec0rS4U+76kfyjrRxOdvpY1NvAA0sFt9SwRGkEV1vf7zablIEbpKl9zV6cH69q0VjS/kpT4myfa1FwNwU++u5siYQa+GkwisrF7J2e+1ziJJ6MYtI6JWrD/KmXASO1cbKLkOc1bTaUEz5q5KFpyZLom2poyQhMdW9/0kWFUTxZuR6PCHYEO9Pw6hufHAH5+BYrttvGcWSkkf23cGDDQObZwquY/3tzokvzjGP8046iBAcroD2p/JKZIOZAWq8kxHeGg1bzASzsS/lS3o/QsbFzSehvajQ6SBClCA+4P/C/8NwO26Zzmu5QQil3bDp+6wOkvDdpoa4y9rsby69EDKSmthubbOULOs9w4b/DHKmZvczAxDbNiz7dV95VffZGHnw92gykxQroLyALA0PMHX9EjEYuL0PHT9yD+I08bhpIRCFkqlpJcx1tDlGAHeKLmaP6tH6F0IMADP95uDBf88QfmRmzW8uMO9eiYFI4R8qsEb06NIRoa8n/imClI0Nawp55EKrFmwstbutWUmCFQV2ItC1g3SQmgzsexi8mK7qYaXUL4QL5DeAR7a/F4ZkutPMUd5zCpuOVtWFdUU5t2XId+HRZL5v7ep5mIwPjJQMKlO4ii22U68TOYjoaLzgX7asQDJsRB7fF+/vdHq2zMEOgFKTHsr77mODT+8qc8aJm/OKJ4jxoUgKhvPFqnBCI5QPUdV/g46fig25i/8ZCS5oV9at2s6Bjjiq/H511kbdNg3KSldR6SoaTMCPDW/E2KVybAx3RnkyyeF9x9wWWO00hHzoPifVAYUxKkPNKOwnTK0dXTQXLT9X1jNs9ChCjRWvtN+VvkDifbZ1SNWKcsT83b0wVyPk8xEB0fRf6tII8KnCMN+EiuamhXXFmPrKi021IGyOxY8oYzh1QnqoHSj3Qd/RQhNZIor3xHOIuBQwiYAz7suB5wkRZpTkpGFufr6WDhJqhrW8Zuu+8kejEI7edtFI4eprn8U3P1mCOQ8cA0UF9j+23EFTrGWRF73a7jeWwN6BlDXqr0YIBsq49nz3H5l9MJhy3sWmUMAvB+ntI8btgYiqwViNQKolc8sANdNUF07c1qrSOE6YcTDHmK1wN99ifBfP4pP/Ggxv9DiW+LiCZPM9CMrV0JIf9aAuHJ2LORDzmAnMPxVMnE18aUiKB5zgrzkZnJLw9jRhu0TomWpP5sZuh58TKaG2/sNpOSckL5i027owvXv8Pype/owcAp0MveLyzfUpSBzvSopVmaiAZ5WdJn/NPL50yicRfo/ICRa9C6geOzudizggiCJwJxXxUQpbhd/KxSNclzx+IDXx17QqZ5UutF4PNJkgcICM2MgmYtA1KGCYXzIYXZtUStJzY1C84HfOWE/DTIaRifuWz/F00Y7ND2Sc8v1futYLCM0Rfeho9Pqyi4to0mjdzgneCFVpyjIwUqZHwrTVDoeuPiPSNeCYMJ4XnW1Eea6iiKD70toT5r5HHCfbWioDhfsuyyo+4HyYYkhUg20J0QGROcmqyP/RUOSs6NDpYEKjID7g/0P/A7LGb/XzzuB4WYzN6dZ+0Ey58XK6Wo7kyqYV+CKvdBockBCl5l8bCtZTI3MS3hNBQrEvijY9ywjPNzNFCRV9430hM7aAqWZe1aWCH3iDyoeQRZ3Zz4z3VjszN5FLG7D/e8GGewTroxWostKslBLOLm83rnwR86P/CfNzO/Z8B+pAW3z1Y/klZthQZIek904tc7WRPTKRJWrwc1TX7ZPueU19Rb2gV87d2xx9HUNEvfapHE+i1kgxigRdfBBEgTfWqpaW0sKX/upyJgnGiTIJU/rQkH+Zv15UX4yP8ZNDsbSAMIaGv9ZCTUBlyzIsMNTWzQU1l4XxDsciiiAMUlXcWY8DljVusO6ex0DPmo9nkHJoXj0gJgQEh7aZfrJgLvBlWBWdQ48MpmCNybB6x7WifK3GHhYDD8Zra62zC96mENAwgFeUx5Qfpx0hlKzJOat+bismyqwmk8l6+V3bQ0yCZ/u4FmrhLOjyC+jPDckdq4Zon+qF50kLEzY18T2i/Sk7Wb2DENw7KZJEjCidIpgdRMDOzcPexf8YtGeXmbU/LGNC07vF9mG18bR5+2rmGvAV+XACymuECNXSXWWDzSIoiYXQDVUoY0tv9HmD9qQkiX1z0iSx12MRGPtQq/x6Qcq2k7LxKoqPIiAdgJI5yMdOdpx/LteiEafPu/fy4DLCeto8oCx1IQ9gQN5L3d2xMz98xOv3ZkmbhoKjSg2S/Y8TOdopPz51Wa4c+cVCxj/rVVFWM0T7WnME0nXN9IS1ox551IkopPOfLGBapMqCe/6OwVJ//EwR1kfihqulJbHl0KYmStOqMXrCwk0WYotMLoSOwyMZggE8ZjSVAilgK5biB6KfXh9eztQPsdkJjtKx47xbYIJ1GT14mwkfNIZIr5FQOQ16FLa24HxjCokV1Y6ay8xKo8vpaorF0GLRikS24Jr+WTA/4mVpGvKvydQlYzlzkx5P9l2eZHQpS3BI68PWVTVGXPx+5WrlaK2SUXtzWe/xTaqIb0XpfMkb+YGPpATao3ArqrbKC84AyT64Q0kCNGdE9Bm+OiEfAJhD1OzTajH4a6IUTOrzjED/ddMq+qc5IH6xmRIGz2mOHLWobqVP5rzfKitFYZUI9aU1FDtGFRN7vS2KoRS2YvoikpcZeUxQKtoWBfxoUYw9/ObjOrKsgKUZDY2rydi8cZPJZzCldF6Pe9XCSU1l/a2nQgoGoJcjMEs3SDnvG+KWNHVsaNDd4EKyID7g/8K/wnLfqneYZrZBw94yFyeR9nT2GrRGJYx6K0QXe6oHnNFm4v3PWwBzJ1IP9XULbYGQkR81JkereobisG7hNIq+t2OBMl9DGggAPmJFs1ZN5a9MyCjd/np8OkDQTb9evAQNM8mH050WvfXaPEwIyPNJA2Td4BBG8Br0CEkDdb4+qEcg3PinZGhJpA5+yU8xviQpEYbyLiu7KU4p8uQBFH6QmDWO/6BEURiCQ03c/JMEMm585MBmwCogClT7NJNCGBg3XxxSwgLlUKJyfBsD9mxNXh1cWnULsuVO2S4Xc5L9IvIAgcS+s/lK+lfh85G5IrRmA8Q9cudPMk++/efeXQmEUBv3l/fTeOe74dwjy97FFJaonGGFvhEbJ+8ljyGtEr1bbzmakUkT/W3xXz7ZDBmVg5KvCSdtFbw8S+dhgid04d1OpG2j7qSJ/+eF56lDPGn6Jx+cyJjm/XLF4but4eHMGlpwnociE9UTxzCftw1+VGYI6VnD4Xy4ie8aeDLo/Gs1SGVP1g9hj4szApt2Q88HTiaq8a1nRipYxMaA+0/cjB5fxokm3flDyrZYzxO1HH1qGnot6B6kRPwutY5rfvfLW9gFcUtTcPBUkYkzFi+0otyGm7gGF+RTBGu2S+XN3OKnwABJjXio8+t54oAlTcUUNYdganhx75zxcZmWBot4AZ23EGThSv+pEhlH1poBhvAelnyxhL9xCgr5A/MNQdmE6KOgUg8qmUT5AruZTYuW3zzP+NZhjSiCspFaKw/8JJEb7XsxFiIUKcAh/24xZFaqqmJ1DuAMPHCasz1byVmYd0e8hnsyvgVLqW71UC9TUUpOcjVBri8i1VvMBDZgr4bZA14B7aPXDcdRdGS9m5I/NtuMW+FAX5JIEJY00+oAT8ZJZMd0xWaX6udPMdkTnmXE05uFtQuVTkm69nThQNWTou+hGYKRtGecZd4DF7lKcTl+K0nEzo8XIrQJSkHGYmCfarhgzw+zXw+fQRytCSzO/05sujfxoyAtMLQFaSxkDvplcN0ZIGXyrmFNfjzcCdsECfGjaUQwkpoDP5nmn+NINV+BUhsuhUTxlT98m04Uy7ctzPbn/hHrfQN+QOZJKMikwmxQaQUy9UGzdzdgdkXQKYq4hbPGGMj/Ii3+pvxnHykiRr6+dsSLZyRDakK4g23o0NagQsEgPuD/gj+B8T9i6+KmWDaNLcDXOoesOBGhgIsKjVXgWMTy6su7815IvGQGy1V7d+gFr+8H3G/fyS0MY48dewc8LaJwXXy+s3ANCRRGaKHtVhydRGNNqKQSt6b9fSFHO9w3bAShVEuAcrEDDGsi2zmX+zTQAqmFXPDpcZeaVExXDBAa6LYp41me1rDc/j1NNQdGRrdGwu9JJgZ2o2GV2cBzVXl/DE4tFR4FZY861+QjnPEc81G70Wv0MeH520UDStdSqs3MXC6Op58p3LA+d+M50xKp1U6dYbH6LgYhWySb8iCtaq6rq1mREkCi1SUhp9pgOCDzWbFd41qgXwXDIxBUOt+Kgyw78W60pV/ql2TJ68lE8Lqtf4uOloS8M1hE5pzMEPXOLRROMn5zISbgSWobis5oNZEyjfy4/bCS5PHyI2q8/7EDFiJvWtxBDntxlGiJBc+7V2ONlg7VMZqpY0RnRwNGVX4jUiX4gmtdnuM4PQ0ltwLtWe7b15xoKkQrUxEt8DTOhUGD6HxA4hm8Y760SHzwUwET/OIV+e50r36kvdRKLSCXnKVSoKEqI7tGAd3giIJQeYFsTYMX4UBgKZrFFLNF0GoWFOS1CRmD9BXpWTw/I/0JxTU0ltWeNY2ZCkvYELa2oveURo/buGy4EwljccFbUqGIb4ikreSZ5JPdHS6+LsCCD/vMH5pWa0V8jkAbp+8ZkBCI4LBPEsj+0F3I7WTujsGeM8RjaxNWWLPEa1/gzdK1iWPGKfnp3fisNhP8D5vfoqEgOaeYOlmzkjEtJGUqvImNPnwLwWpvprcDAYbbQ+0RgKRRcwBfSwXmvephALXCkW1YiJ/uWYXX9jKIvhPiVByUQxxuSLlSirXHCfsJca8DtFQ1XJ+OWnzM1d+4XzCNmmX68c9saZrIDcAB5rArBWdwKgmu7UeUKsxGDURr1HRZXhGg0nzdigRRCV+Y/Y5y4AF7jWlQSGZQn8syU6/67pX/RMBTfPgnnxNLvjoxscQ5bs0uy5ZEoAdNbdbbATAHmwvG+DSZ9zZqOTMuUEwwa3EMeZHuoS5k3TDxNHdNzZ1SF1CZXOAbI3VvbzTrm5CpTuRaJ9jTzSqbLhnklyI8ki4kyc0F7Ht+Bmw839WvruSoU+Do0RQgQtAgPuD/gX8EFC3VBXIBQu827lj7W96zeunAI73FXuNCitMWBsoCMy+fmpGEB2ydw4Z+Vbhe0mpz/W0ajUk/fW2GOckCIGj/qDPkXaWXiA9PrjjnS2Sc9htGg5nJT3mKTBMleIZKoqMt+MIkpSzp4Z0hEG2kSRwWICmwpfu67/jHTtg+oQFIb9DiMd+9mHT6lmo+v62QEXJuG44td+SrspSE/GrEXatGxqaBKQQVcV+1k4iBP85KKE+tRpZt7R/iPOUFLWX3ECsVTcobJxHoVuSFJnCvMeWQgHuAJh2ilIU2SAYmZNHXcpBWi2yqw3illfIx7qKRH1BRVVNCCSYmGiltLr5KuiIFSFIjFYU+H/o/nZT1Gkep5+HAcRd9/DLHgOktM9cWGAeOdIDKJguOHtghclTvyca+qrsRFFgQtbpHFyeGBHEhQ3Z95x+kF7UHcjGD58VEVr9qBSCMbzWfmNjP4PO08c+WFfkzuBmcTFZQu+iiSGrIwd6iNx/7q6DN9OsJN+v/qMBF6XtitwpCSPUsM8cmrK4yuz6e3ql9TgUMsO8CsmUwpD0pH/xQA9xVJ3e4b45PUuQsAyLdnut6Uj5RC1/PhQacroNzmTayyo5GSyjix9stPi0dlqBBQrETz/dzrD0zcDGW3C3KGdKW/xrQwbb762Qs7VOfpjUxX7yz9MfpHjh7i0RwxNTW5z0rYGC5xFWzA1Cr9P9xNqhjZZtXDr1j3pz/4EPl9huyR07vbRDd+B4jH9bJpMZfYLZvwFIZEDFvTORXefoL399EMiSiV9SlFVPd+6wwI++0/H8mSeKJbQ+Ykh08bGwTRaMFoPNlXSNPXnIROnrSlAb/26jFjWFEKHaLZW7m0ra17eWZJjwKNa9ob7Y2VYhc7YvOfxbVeShZTbA0ArTjmQgpro0lvew9YZWhSBjDqt/tj9mlavPzr9DdnnrIeEvHLfdGlw7aVa3gsr+UxdsL9ZHJdjMi2zFrnLuLGkGs1bfuYAh+zHBfU59QVVRGFQcwQbGUCHx88UFcE8yLCruDZPzW30ozVDfk8jLdUnibnCvdw2hgRHnH4kMAHpE/QJCHCS2zW//8/eXAZGwXUzi2Dkr6ADwH3mTp3R2df/xtCP0+Ugi8vzcTQ+PXZ/cRu27nSxYzqroyRl6hLW/4SNYXXO1bcxXkg7LZo7aPSWy9K0U5Gk8QgIiQQh3iJdtRaPHkNM5V6uImyQMreNYe4QKIzDRCfKZ333fFAVRnuMpTdIYzTVnFifJ2KE+kwUpUrpCbFYmol8n0DoJ7ci3wEv6u8q6vUW8N8aSkC8QqjzZLHlE2RwTZDUXMhq0AvlQ5ZYqAxAgw0BKL2M/3q9MOB3wieZxswH3V63WPaqw+EfPJCjkVt5TTPreg2eCAVSZ+fgFIPikR8LgflD3NubCahhIg9wangTRGc+zizxrExVKL2Ilj72gsQzqBFXKbDsqTD3D8y/Eo0OYgQt8gPuD/Q3+DFrNIIM4eJbV4e5kH897eQ+wv3m0DfSHCoA55yqdays/Y7d6LG1l4KsmH8NDeG2g6In+8MXHIEnJDR+eYArHUFpVAYjBAiIscaKPOoCCvCkZRBjod6bh+OeG1eWY7s/DOLB2bnaYcGZeadq95atirUHb4T01HoGyKNpIDnesaeYQzHiLtAZtMEW+5G8Dl9z63pUSCYFbkNNISatMzhwVhUr15fE1G42EmKtAYJeIg1lOw2wyZ8EOL273ikXy7M41no9I1dEvxXxzuQ+GZcPTU1DYEXLl5loinFpeLjs5LMsH3sLcFbMXhhORKts1o8ihJzRE8ARVVBP7OTIV3zOKogyntEAQV/r7Wkb0YGHV816DyhO/fvKEd3QJ1DnS1MkM2ekDtCWF/S1inbQcu62yOz5OP5Jv570mW/AZIZpTF2awkIyTq7yIr7Ey9vXFSwsMbEKDqdlOR2kLY56NBgVJvyZchV8nnMU+wiAzDYVwT7eP1PIp9fV5ilRZz14KFYIK24axWcNxRcYRpua5JIhnrHsm35ZtcTwzYAx+71vqXc/fG6y2GfSENbVKqhdr4pkIf3Tgultjujc8hDAnuHwG5JctLO5+21RNxYiU2PuWpW6v2QrH41EzDjX8iGVNr97VzTVqxeonn/2jE5IhIW3camRSnrHduGKJZh4/7OdupQk9dpOB7L3+NpkjGn1FY3OawtoL4sshH1AKoGR7J96BKVQjSJ7RmUtkC4anylR0Ud1lEwbs6MNHZAsO14xdz25cYPTgpGf+/G97FSrLs4vpVr0Jqa9UGFna2U/5oJBDvWpQq/VKNdjr/TnSaAkAJKpqclP+cShFnFqHkACiHyTYVgrHErXgyzH+eat8xnjMPmmHQl6ct/kTEOnk5zLGmLThHssjRqUzX7ssbUv3pEH7QOY22sgqyLsUAmzRJ/jXlJQTFeaH33HgBIhIcO9non7+Sd2kJfuRJ0ozLGuhGJKECius6NgkMJFAZRB8xosKBgSwPR+/vyEA1I/xfwYcmxrWtV9Zq9t3oKoS5GVZLPqDA2IS0NiV0h1dblO08qTMp0hHhLwSm3Y+evitR6zjUZ8y41lwPK81AHpSnqPDnL+WA9KljDqJ39sEEdoR4yBXap1B7mIJqYxD6O+CjBIMykBWqLHwAdNUNurklgMdAvHjU7RjTFKlDaUC4ztd3HUQKJpXV2UomJUnnDPbUDYEawWjQ5WBC7iA+4P+DP4MP3atzz1lZw1zppaXG4LsboGKQ2NuIZiNWKBszbqDaITvVGKI9YL8iROJMmCLvFsPBXH4eRBzQbCNgNgC4A5AInuDtQOYxTICNyvNANkVJTzepEpzWVhMgrUVDGJ1/nyfaXiW87pTDifnO8mYIPR2lQ0Q8Tn3x7G37Cw6LZM0YfsUTg6su3C7F03ogiff6CTO6V9BjkFlQjeIUkehWuAnxyJAXjrST6PXa9PED0I0K/MMasxEtenxSZaK8diSGXE8VkxaBKABwHGTxb5nInEUb39VQGFD3fkTiTesdrXNmrbHNV5yj+5zatX,,,,,,,,,,,,,,,,
