"success","timeout","failed_images","failed_audio","failed_video","trial_type","trial_index","time_elapsed","internal_node_id","subject","subject_id","study_id","session_id","urlvar","current_url","selected_option","audio_id","view_history","rt","device_id","stimulus","response","estimated_stimulus_onset"
"true","false","[]","[]","[]","preload","0","25410","0.0-0.0","273F071D9FAB4E18A8A523CB0712AD5D","273F071D9FAB4E18A8A523CB0712AD5D","4c25b94f-e4d9-4cf4-8d69-48dd388ca05b","8bf6df8b-65cd-48e9-a0be-8f7d173ccf15","{""participantId"":""273F071D9FAB4E18A8A523CB0712AD5D"",""assignmentId"":""4c25b94f-e4d9-4cf4-8d69-48dd388ca05b"",""projectId"":""8bf6df8b-65cd-48e9-a0be-8f7d173ccf15""}","https://test12345.live/?participantId=273F071D9FAB4E18A8A523CB0712AD5D&assignmentId=4c25b94f-e4d9-4cf4-8d69-48dd388ca05b&projectId=8bf6df8b-65cd-48e9-a0be-8f7d173ccf15","[{""stimulus"":""images/schemes/flight_scheme/flight_0.png"",""stimulus_width"":""600"",""stimulus_height"":""600"",""choices"":[],""prompt"":"""",""trial_duration"":""5000""},{""stimulus"":""images/schemes/restaurant_scheme/restaurant_0.png"",""stimulus_width"":""600"",""stimulus_height"":""600"",""choices"":[],""prompt"":"""",""trial_duration"":""5000""},{""stimulus"":""images/celebs/timeline_a/0_celebs_a.png"",""choices"":[],""prompt"":"""",""stimulus_width"":""600"",""stimulus_height"":""600"",""trial_duration"":""5000""},{""stimulus"":""images/celebs/timeline_b/0_celebs_b.png"",""stimulus_width"":""600"",""stimulus_height"":""600"",""choices"":[],""prompt"":"""",""trial_duration"":""5000""},{""stimulus"":""images/stories/paris_story/paris_story_0.png"",""stimulus_width"":""600"",""stimulus_height"":""600"",""choices"":[],""prompt"":"""",""trial_duration"":""5000""},{""stimulus"":""images/stories/market_story/market_story_0.png"",""stimulus_width"":""600"",""stimulus_height"":""600"",""choices"":[],""prompt"":"""",""trial_duration"":""5000""}]","273F071D9FAB4E18A8A523CB0712AD5D-2024-07-22-22-45-22","","","","","",""
"","","","","","instructions","1","214425","0.0-1.0","273F071D9FAB4E18A8A523CB0712AD5D","273F071D9FAB4E18A8A523CB0712AD5D","4c25b94f-e4d9-4cf4-8d69-48dd388ca05b","8bf6df8b-65cd-48e9-a0be-8f7d173ccf15","{""participantId"":""273F071D9FAB4E18A8A523CB0712AD5D"",""assignmentId"":""4c25b94f-e4d9-4cf4-8d69-48dd388ca05b"",""projectId"":""8bf6df8b-65cd-48e9-a0be-8f7d173ccf15""}","https://test12345.live/?participantId=273F071D9FAB4E18A8A523CB0712AD5D&assignmentId=4c25b94f-e4d9-4cf4-8d69-48dd388ca05b&projectId=8bf6df8b-65cd-48e9-a0be-8f7d173ccf15","[{""stimulus"":""images/schemes/flight_scheme/flight_0.png"",""stimulus_width"":""600"",""stimulus_height"":""600"",""choices"":[],""prompt"":"""",""trial_duration"":""5000""},{""stimulus"":""images/schemes/restaurant_scheme/restaurant_0.png"",""stimulus_width"":""600"",""stimulus_height"":""600"",""choices"":[],""prompt"":"""",""trial_duration"":""5000""},{""stimulus"":""images/celebs/timeline_a/0_celebs_a.png"",""choices"":[],""prompt"":"""",""stimulus_width"":""600"",""stimulus_height"":""600"",""trial_duration"":""5000""},{""stimulus"":""images/celebs/timeline_b/0_celebs_b.png"",""stimulus_width"":""600"",""stimulus_height"":""600"",""choices"":[],""prompt"":"""",""trial_duration"":""5000""},{""stimulus"":""images/stories/paris_story/paris_story_0.png"",""stimulus_width"":""600"",""stimulus_height"":""600"",""choices"":[],""prompt"":"""",""trial_duration"":""5000""},{""stimulus"":""images/stories/market_story/market_story_0.png"",""stimulus_width"":""600"",""stimulus_height"":""600"",""choices"":[],""prompt"":"""",""trial_duration"":""5000""}]","273F071D9FAB4E18A8A523CB0712AD5D-2024-07-22-22-45-22","[{""page_index"":0,""viewing_time"":189013}]","189014","","","",""
"","","","","","instructions","2","296935","0.0-2.0","273F071D9FAB4E18A8A523CB0712AD5D","273F071D9FAB4E18A8A523CB0712AD5D","4c25b94f-e4d9-4cf4-8d69-48dd388ca05b","8bf6df8b-65cd-48e9-a0be-8f7d173ccf15","{""participantId"":""273F071D9FAB4E18A8A523CB0712AD5D"",""assignmentId"":""4c25b94f-e4d9-4cf4-8d69-48dd388ca05b"",""projectId"":""8bf6df8b-65cd-48e9-a0be-8f7d173ccf15""}","https://test12345.live/?participantId=273F071D9FAB4E18A8A523CB0712AD5D&assignmentId=4c25b94f-e4d9-4cf4-8d69-48dd388ca05b&projectId=8bf6df8b-65cd-48e9-a0be-8f7d173ccf15","[{""stimulus"":""images/schemes/flight_scheme/flight_0.png"",""stimulus_width"":""600"",""stimulus_height"":""600"",""choices"":[],""prompt"":"""",""trial_duration"":""5000""},{""stimulus"":""images/schemes/restaurant_scheme/restaurant_0.png"",""stimulus_width"":""600"",""stimulus_height"":""600"",""choices"":[],""prompt"":"""",""trial_duration"":""5000""},{""stimulus"":""images/celebs/timeline_a/0_celebs_a.png"",""choices"":[],""prompt"":"""",""stimulus_width"":""600"",""stimulus_height"":""600"",""trial_duration"":""5000""},{""stimulus"":""images/celebs/timeline_b/0_celebs_b.png"",""stimulus_width"":""600"",""stimulus_height"":""600"",""choices"":[],""prompt"":"""",""trial_duration"":""5000""},{""stimulus"":""images/stories/paris_story/paris_story_0.png"",""stimulus_width"":""600"",""stimulus_height"":""600"",""choices"":[],""prompt"":"""",""trial_duration"":""5000""},{""stimulus"":""images/stories/market_story/market_story_0.png"",""stimulus_width"":""600"",""stimulus_height"":""600"",""choices"":[],""prompt"":"""",""trial_duration"":""5000""}]","273F071D9FAB4E18A8A523CB0712AD5D-2024-07-22-22-45-22","[{""page_index"":0,""viewing_time"":82513}]","82513","","","",""
"true","","","","","fullscreen","3","339662","0.0-3.0","273F071D9FAB4E18A8A523CB0712AD5D","273F071D9FAB4E18A8A523CB0712AD5D","4c25b94f-e4d9-4cf4-8d69-48dd388ca05b","8bf6df8b-65cd-48e9-a0be-8f7d173ccf15","{""participantId"":""273F071D9FAB4E18A8A523CB0712AD5D"",""assignmentId"":""4c25b94f-e4d9-4cf4-8d69-48dd388ca05b"",""projectId"":""8bf6df8b-65cd-48e9-a0be-8f7d173ccf15""}","https://test12345.live/?participantId=273F071D9FAB4E18A8A523CB0712AD5D&assignmentId=4c25b94f-e4d9-4cf4-8d69-48dd388ca05b&projectId=8bf6df8b-65cd-48e9-a0be-8f7d173ccf15","[{""stimulus"":""images/schemes/flight_scheme/flight_0.png"",""stimulus_width"":""600"",""stimulus_height"":""600"",""choices"":[],""prompt"":"""",""trial_duration"":""5000""},{""stimulus"":""images/schemes/restaurant_scheme/restaurant_0.png"",""stimulus_width"":""600"",""stimulus_height"":""600"",""choices"":[],""prompt"":"""",""trial_duration"":""5000""},{""stimulus"":""images/celebs/timeline_a/0_celebs_a.png"",""choices"":[],""prompt"":"""",""stimulus_width"":""600"",""stimulus_height"":""600"",""trial_duration"":""5000""},{""stimulus"":""images/celebs/timeline_b/0_celebs_b.png"",""stimulus_width"":""600"",""stimulus_height"":""600"",""choices"":[],""prompt"":"""",""trial_duration"":""5000""},{""stimulus"":""images/stories/paris_story/paris_story_0.png"",""stimulus_width"":""600"",""stimulus_height"":""600"",""choices"":[],""prompt"":"""",""trial_duration"":""5000""},{""stimulus"":""images/stories/market_story/market_story_0.png"",""stimulus_width"":""600"",""stimulus_height"":""600"",""choices"":[],""prompt"":"""",""trial_duration"":""5000""}]","273F071D9FAB4E18A8A523CB0712AD5D-2024-07-22-22-45-22","","41717","","","",""
"","","","","","initialize-microphone","4","360489","0.0-4.0","273F071D9FAB4E18A8A523CB0712AD5D","273F071D9FAB4E18A8A523CB0712AD5D","4c25b94f-e4d9-4cf4-8d69-48dd388ca05b","8bf6df8b-65cd-48e9-a0be-8f7d173ccf15","{""participantId"":""273F071D9FAB4E18A8A523CB0712AD5D"",""assignmentId"":""4c25b94f-e4d9-4cf4-8d69-48dd388ca05b"",""projectId"":""8bf6df8b-65cd-48e9-a0be-8f7d173ccf15""}","https://test12345.live/?participantId=273F071D9FAB4E18A8A523CB0712AD5D&assignmentId=4c25b94f-e4d9-4cf4-8d69-48dd388ca05b&projectId=8bf6df8b-65cd-48e9-a0be-8f7d173ccf15","[{""stimulus"":""images/schemes/flight_scheme/flight_0.png"",""stimulus_width"":""600"",""stimulus_height"":""600"",""choices"":[],""prompt"":"""",""trial_duration"":""5000""},{""stimulus"":""images/schemes/restaurant_scheme/restaurant_0.png"",""stimulus_width"":""600"",""stimulus_height"":""600"",""choices"":[],""prompt"":"""",""trial_duration"":""5000""},{""stimulus"":""images/celebs/timeline_a/0_celebs_a.png"",""choices"":[],""prompt"":"""",""stimulus_width"":""600"",""stimulus_height"":""600"",""trial_duration"":""5000""},{""stimulus"":""images/celebs/timeline_b/0_celebs_b.png"",""stimulus_width"":""600"",""stimulus_height"":""600"",""choices"":[],""prompt"":"""",""trial_duration"":""5000""},{""stimulus"":""images/stories/paris_story/paris_story_0.png"",""stimulus_width"":""600"",""stimulus_height"":""600"",""choices"":[],""prompt"":"""",""trial_duration"":""5000""},{""stimulus"":""images/stories/market_story/market_story_0.png"",""stimulus_width"":""600"",""stimulus_height"":""600"",""choices"":[],""prompt"":"""",""trial_duration"":""5000""}]","273F071D9FAB4E18A8A523CB0712AD5D-2024-07-22-22-45-22","","","eb8eb153ce7d4f3450f7cc8d3744c7cc04126c466976cd9f183cfe32c3525075","","",""
"","","","","","instructions","5","382977","0.0-5.0","273F071D9FAB4E18A8A523CB0712AD5D","273F071D9FAB4E18A8A523CB0712AD5D","4c25b94f-e4d9-4cf4-8d69-48dd388ca05b","8bf6df8b-65cd-48e9-a0be-8f7d173ccf15","{""participantId"":""273F071D9FAB4E18A8A523CB0712AD5D"",""assignmentId"":""4c25b94f-e4d9-4cf4-8d69-48dd388ca05b"",""projectId"":""8bf6df8b-65cd-48e9-a0be-8f7d173ccf15""}","https://test12345.live/?participantId=273F071D9FAB4E18A8A523CB0712AD5D&assignmentId=4c25b94f-e4d9-4cf4-8d69-48dd388ca05b&projectId=8bf6df8b-65cd-48e9-a0be-8f7d173ccf15","[{""stimulus"":""images/schemes/flight_scheme/flight_0.png"",""stimulus_width"":""600"",""stimulus_height"":""600"",""choices"":[],""prompt"":"""",""trial_duration"":""5000""},{""stimulus"":""images/schemes/restaurant_scheme/restaurant_0.png"",""stimulus_width"":""600"",""stimulus_height"":""600"",""choices"":[],""prompt"":"""",""trial_duration"":""5000""},{""stimulus"":""images/celebs/timeline_a/0_celebs_a.png"",""choices"":[],""prompt"":"""",""stimulus_width"":""600"",""stimulus_height"":""600"",""trial_duration"":""5000""},{""stimulus"":""images/celebs/timeline_b/0_celebs_b.png"",""stimulus_width"":""600"",""stimulus_height"":""600"",""choices"":[],""prompt"":"""",""trial_duration"":""5000""},{""stimulus"":""images/stories/paris_story/paris_story_0.png"",""stimulus_width"":""600"",""stimulus_height"":""600"",""choices"":[],""prompt"":"""",""trial_duration"":""5000""},{""stimulus"":""images/stories/market_story/market_story_0.png"",""stimulus_width"":""600"",""stimulus_height"":""600"",""choices"":[],""prompt"":"""",""trial_duration"":""5000""}]","273F071D9FAB4E18A8A523CB0712AD5D-2024-07-22-22-45-22","[{""page_index"":0,""viewing_time"":1938},{""page_index"":1,""viewing_time"":10460},{""page_index"":2,""viewing_time"":10087}]","22486","","","",""
"","","","","","image-button-response","6","387992","0.0-6.0","273F071D9FAB4E18A8A523CB0712AD5D","273F071D9FAB4E18A8A523CB0712AD5D","4c25b94f-e4d9-4cf4-8d69-48dd388ca05b","8bf6df8b-65cd-48e9-a0be-8f7d173ccf15","{""participantId"":""273F071D9FAB4E18A8A523CB0712AD5D"",""assignmentId"":""4c25b94f-e4d9-4cf4-8d69-48dd388ca05b"",""projectId"":""8bf6df8b-65cd-48e9-a0be-8f7d173ccf15""}","https://test12345.live/?participantId=273F071D9FAB4E18A8A523CB0712AD5D&assignmentId=4c25b94f-e4d9-4cf4-8d69-48dd388ca05b&projectId=8bf6df8b-65cd-48e9-a0be-8f7d173ccf15","[{""stimulus"":""images/schemes/flight_scheme/flight_0.png"",""stimulus_width"":""600"",""stimulus_height"":""600"",""choices"":[],""prompt"":"""",""trial_duration"":""5000""},{""stimulus"":""images/schemes/restaurant_scheme/restaurant_0.png"",""stimulus_width"":""600"",""stimulus_height"":""600"",""choices"":[],""prompt"":"""",""trial_duration"":""5000""},{""stimulus"":""images/celebs/timeline_a/0_celebs_a.png"",""choices"":[],""prompt"":"""",""stimulus_width"":""600"",""stimulus_height"":""600"",""trial_duration"":""5000""},{""stimulus"":""images/celebs/timeline_b/0_celebs_b.png"",""stimulus_width"":""600"",""stimulus_height"":""600"",""choices"":[],""prompt"":"""",""trial_duration"":""5000""},{""stimulus"":""images/stories/paris_story/paris_story_0.png"",""stimulus_width"":""600"",""stimulus_height"":""600"",""choices"":[],""prompt"":"""",""trial_duration"":""5000""},{""stimulus"":""images/stories/market_story/market_story_0.png"",""stimulus_width"":""600"",""stimulus_height"":""600"",""choices"":[],""prompt"":"""",""trial_duration"":""5000""}]","273F071D9FAB4E18A8A523CB0712AD5D-2024-07-22-22-45-22","","null","","images/instructions/movie_0.png","null",""
"","","","","","html-audio-response","7","415847","0.0-7.0","273F071D9FAB4E18A8A523CB0712AD5D","273F071D9FAB4E18A8A523CB0712AD5D","4c25b94f-e4d9-4cf4-8d69-48dd388ca05b","8bf6df8b-65cd-48e9-a0be-8f7d173ccf15","{""participantId"":""273F071D9FAB4E18A8A523CB0712AD5D"",""assignmentId"":""4c25b94f-e4d9-4cf4-8d69-48dd388ca05b"",""projectId"":""8bf6df8b-65cd-48e9-a0be-8f7d173ccf15""}","https://test12345.live/?participantId=273F071D9FAB4E18A8A523CB0712AD5D&assignmentId=4c25b94f-e4d9-4cf4-8d69-48dd388ca05b&projectId=8bf6df8b-65cd-48e9-a0be-8f7d173ccf15","[{""stimulus"":""images/schemes/flight_scheme/flight_0.png"",""stimulus_width"":""600"",""stimulus_height"":""600"",""choices"":[],""prompt"":"""",""trial_duration"":""5000""},{""stimulus"":""images/schemes/restaurant_scheme/restaurant_0.png"",""stimulus_width"":""600"",""stimulus_height"":""600"",""choices"":[],""prompt"":"""",""trial_duration"":""5000""},{""stimulus"":""images/celebs/timeline_a/0_celebs_a.png"",""choices"":[],""prompt"":"""",""stimulus_width"":""600"",""stimulus_height"":""600"",""trial_duration"":""5000""},{""stimulus"":""images/celebs/timeline_b/0_celebs_b.png"",""stimulus_width"":""600"",""stimulus_height"":""600"",""choices"":[],""prompt"":"""",""trial_duration"":""5000""},{""stimulus"":""images/stories/paris_story/paris_story_0.png"",""stimulus_width"":""600"",""stimulus_height"":""600"",""choices"":[],""prompt"":"""",""trial_duration"":""5000""},{""stimulus"":""images/stories/market_story/market_story_0.png"",""stimulus_width"":""600"",""stimulus_height"":""600"",""choices"":[],""prompt"":"""",""trial_duration"":""5000""}]","273F071D9FAB4E18A8A523CB0712AD5D-2024-07-22-22-45-22","","25971","","<span style=""color: red; font-size: 24px""> NOW RECORDING</span>
        <p>Please say out loud all the images you saw in part 1 of the experiment, as many as you can remember. The images can be said in any order.</p>","GkXfo59ChoEBQveBAULygQRC84EIQoKEd2VibUKHgQRChYECGFOAZwH/////////FUmpZpkq17GDD0JATYCGQ2hyb21lV0GGQ2hyb21lFlSua7+uvdeBAXPFh/0rABzCeKaDgQKGhkFfT1BVU2Oik09wdXNIZWFkAQEAAIC7AAAAAADhjbWERzuAAJ+BAWJkgSAfQ7Z1Af/////////ngQCjjIEAAID7A//+//7//qOMgQA8gPsD//7//v/+o4yBAHiA+wP//v/+//6jjIEAtID7A//+//7//qOMgQDwgPsD//7//v/+o4yBASyA+wP//v/+//6jjIEBaID7A//+//7//qOMgQGkgPsD//7//v/+o4yBAeCA+wP//v/+//6jjIECHID7A//+//7//qOMgQJYgPsD//7//v/+o4yBApSA+wP//v/+//6jjIEC0ID7A//+//7//qOMgQMMgPsD//7//v/+o4yBA0iA+wP//v/+//6jjIEDhID7A//+//7//qOMgQPAgPsD//7//v/+o4yBA/yA+wP//v/+//6jjIEEOID7A//+//7//qOMgQR0gPsD//7//v/+o4yBBLCA+wP//v/+//6jjIEE7ID7A//+//7//qOMgQUogPsD//7//v/+o4yBBWSA+wP//v/+//6jjIEFoID7A//+//7//qOMgQXcgPsD//7//v/+o4yBBhiA+wP//v/+//6jjIEGU4D7A//+//7//qOMgQaQgPsD//7//v/+o4yBBsyA+wP//v/+//6jjIEHCID7A//+//7//qOMgQdEgPsD//7//v/+o4yBB4CA+wP//v/+//6jjIEHvID7A//+//7//qOMgQf4gPsD//7//v/+o4yBCDSA+wP//v/+//6jjIEIcID7A//+//7//qOMgQisgPsD//7//v/+o4yBCOiA+wP//v/+//6jjIEJJID7A//+//7//qOMgQlggPsD//7//v/+o4yBCZyA+wP//v/+//6jjIEJ2ID7A//+//7//qOMgQoUgPsD//7//v/+o4yBClCA+wP//v/+//6jjIEKjID7A//+//7//qOMgQrIgPsD//7//v/+o4yBCwSA+wP//v/+//6jjIELQID7A//+//7//qOMgQt8gPsD//7//v/+o4yBC7iA+wP//v/+//6jjIEL9ID7A//+//7//qOMgQwvgPsD//7//v/+o4yBDGuA+wP//v/+//6jjIEMqID7A//+//7//qOMgQzkgPsD//7//v/+o4yBDSCA+wP//v/+//6jjIENXID7A//+//7//qOMgQ2YgPsD//7//v/+o4yBDdSA+wP//v/+//6jjIEOEID7A//+//7//qOMgQ5MgPsD//7//v/+o4yBDoiA+wP//v/+//6jjIEOxID7A//+//7//qOMgQ8AgPsD//7//v/+o4yBDzyA+wP//v/+//6jjIEPd4D7A//+//7//qOMgQ+0gPsD//7//v/+o4yBD/CA+wP//v/+//6jjIEQLID7A//+//7//qOMgRBogPsD//7//v/+o4yBEKSA+wP//v/+//6jjIEQ4ID7A//+//7//qOMgREcgPsD//7//v/+o4yBEViA+wP//v/+//6jjIERlID7A//+//7//qOMgRHQgPsD//7//v/+o4yBEgyA+wP//v/+//6jjIESSID7A//+//7//qOMgRKEgPsD//7//v/+o4yBEsCA+wP//v/+//6jjIES/ID7A//+//7//qOMgRM4gPsD//7//v/+o4yBE3SA+wP//v/+//6jjIETsID7A//+//7//qOMgRPrgPsD//7//v/+o4yBFCiA+wP//v/+//6jjIEUZID7A//+//7//qOMgRSggPsD//7//v/+o4yBFNyA+wP//v/+//6jjIEVGID7A//+//7//qOMgRVUgPsD//7//v/+o4yBFZCA+wP//v/+//6jjIEVzID7A//+//7//qOMgRYIgPsD//7//v/+o4yBFkSA+wP//v/+//6jjIEWf4D7A//+//7//qOMgRa8gPsD//7//v/+o4yBFveA+wP//v/+//6jjIEXNID7A//+//7//qOMgRdwgPsD//7//v/+o4yBF6yA+wP//v/+//6jjIEX6ID7A//+//7//qOMgRgkgPsD//7//v/+o4yBGGCA+wP//v/+//6jjIEYnID7A//+//7//qOMgRjYgPsD//7//v/+o4yBGRSA+wP//v/+//6jjIEZUID7A//+//7//qOMgRmMgPsD//7//v/+o4yBGciA+wP//v/+//6jjIEaBID7A//+//7//qOMgRpAgPsD//7//v/+o4yBGnyA+wP//v/+//6jjIEauID7A//+//7//qOMgRrzgPsD//7//v/+o4yBGzCA+wP//v/+//6jjIEbbID7A//+//7//qOMgRungPsD//7//v/+o4yBG+SA+wP//v/+//6jjIEcIID7A//+//7//qOMgRxcgPsD//7//v/+o4yBHJiA+wP//v/+//6jjIEc1ID7A//+//7//qOMgR0QgPsD//7//v/+o4yBHUyA+wP//v/+//6jjIEdiID7A//+//7//qOMgR3EgPsD//7//v/+o4yBHgCA+wP//v/+//6jjIEePID7A//+//7//qOMgR54gPsD//7//v/+o4yBHrSA+wP//v/+//6jjIEe8ID7A//+//7//qOMgR8sgPsD//7//v/+o4yBH2iA+wP//v/+//6jjIEfo4D7A//+//7//qOMgR/ggPsD//7//v/+o4yBIByA+wP//v/+//6jjIEgV4D7A//+//7//qOMgSCUgPsD//7//v/+o4yBINCA+wP//v/+//6jjIEhDID7A//+//7//qOMgSFIgPsD//7//v/+o4yBIYSA+wP//v/+//6jjIEhwID7A//+//7//qOMgSH8gPsD//7//v/+o4yBIjiA+wP//v/+//6jjIEidID7A//+//7//qOMgSKwgPsD//7//v/+o4yBIuyA+wP//v/+//6jjIEjKID7A//+//7//qOMgSNkgPsD//7//v/+o4yBI5+A+wP//v/+//6jjIEj24D7A//+//7//qOMgSQXgPsD//7//v/+o4yBJFSA+wP//v/+//6jjIEkj4D7A//+//7//qOMgSTLgPsD//7//v/+o4yBJQiA+wP//v/+//6jjIElRID7A//+//7//qOMgSWAgPsD//7//v/+o4yBJbuA+wP//v/+//6jjIEl+ID7A//+//7//qOMgSYzgPsD//7//v/+o4yBJnCA+wP//v/+//6jjIEmrID7A//+//7//qOMgSbogPsD//7//v/+o4yBJySA+wP//v/+//6jjIEnX4D7A//+//7//qOMgSecgPsD//7//v/+o4yBJ9eA+wP//v/+//6jjIEoFID7A//+//7//qOMgShQgPsD//7//v/+o4yBKIuA+wP//v/+//6jjIEoyID7A//+//7//qOMgSkDgPsD//7//v/+o4yBKUCA+wP//v/+//6jjIEpfID7A//+//7//qOMgSm3gPsD//7//v/+o4yBKfSA+wP//v/+//6jjIEqMID7A//+//7//qOMgSpsgPsD//7//v/+o4yBKqeA+wP//v/+//6jjIEq5ID7A//+//7//qOMgSsggPsD//7//v/+o4yBK1yA+wP//v/+//6jjIErmID7A//+//7//qOMgSvTgPsD//7//v/+o4yBLBCA+wP//v/+//6jjIEsTID7A//+//7//qOMgSyIgPsD//7//v/+o4yBLMSA+wP//v/+//6jjIEs/4D7A//+//7//qOMgS08gPsD//7//v/+o4yBLXiA+wP//v/+//6jjIEts4D7A//+//7//qOMgS3wgPsD//7//v/+o4yBLiyA+wP//v/+//6jjIEuaID7A//+//7//qOMgS6kgPsD//7//v/+o4yBLuCA+wP//v/+//6jjIEvHID7A//+//7//qOMgS9YgPsD//7//v/+o4yBL5OA+wP//v/+//6jjIEv0ID7A//+//7//qOMgTALgPsD//7//v/+o4yBMEiA+wP//v/+//6jjIEwhID7A//+//7//qOMgTDAgPsD//7//v/+o4yBMPyA+wP//v/+//6jjIExOID7A//+//7//qOMgTF0gPsD//7//v/+o4yBMbCA+wP//v/+//6jjIEx7ID7A//+//7//qOMgTIogPsD//7//v/+o4yBMmSA+wP//v/+//6jjIEyn4D7A//+//7//qOMgTLbgPsD//7//v/+o4yBMxeA+wP//v/+//6jjIEzVID7A//+//7//qOMgTOQgPsD//7//v/+o4yBM8yA+wP//v/+//6jjIE0B4D7A//+//7//qOMgTRDgPsD//7//v/+o4yBNICA+wP//v/+//6jjIE0u4D7A//+//7//qOMgTT4gPsD//7//v/+o4yBNTOA+wP//v/+//6jjIE1cID7A//+//7//qOMgTWsgPsD//7//v/+o4yBNeiA+wP//v/+//6jjIE2JID7A//+//7//qOMgTZggPsD//7//v/+o4yBNpyA+wP//v/+//6jjIE214D7A//+//7//qOMgTcTgPsD//7//v/+o4yBN1CA+wP//v/+//6jjIE3i4D7A//+//7//qOMgTfIgPsD//7//v/+o4yBOASA+wP//v/+//6jjIE4P4D7A//+//7//qOMgTh8gPsD//7//v/+o4yBOLiA+wP//v/+//6jjIE49ID7A//+//7//qOMgTkvgPsD//7//v/+o4yBOWuA+wP//v/+//6jjIE5qID7A//+//7//qOMgTnkgPsD//7//v/+o4yBOiCA+wP//v/+//6jjIE6XID7A//+//7//qOMgTqXgPsD//7//v/+o4yBOtSA+wP//v/+//6jjIE7EID7A//+//7//qOMgTtLgPsD//7//v/+o4yBO4iA+wP//v/+//6jjIE7xID7A//+//7//qOMgTwAgPsD//7//v/+o4yBPDyA+wP//v/+//6jjIE8d4D7A//+//7//qOMgTy0gPsD//7//v/+o4yBPO+A+wP//v/+//6jjIE9LID7A//+//7//qOMgT1ngPsD//7//v/+o4yBPaSA+wP//v/+//6jjIE94ID7A//+//7//qOMgT4bgPsD//7//v/+o4yBPleA+wP//v/+//6jjIE+lID7A//+//7//qOMgT7PgPsD//7//v/+o4yBPwuA+wP//v/+//6jjIE/SID7A//+//7//qOMgT+EgPsD//7//v/+o4yBP7+A+wP//v/+//6jjIE//ID7A//+//7//qOMgUA4gPsD//7//v/+o4yBQHSA+wP//v/+//6jjIFAr4D7A//+//7//qOMgUDrgPsD//7//v/+o4yBQSeA+wP//v/+//6jjIFBY4D7A//+//7//qOMgUGggPsD//7//v/+o4yBQdyA+wP//v/+//6jjIFCF4D7A//+//7//qOMgUJTgPsD//7//v/+o4yBQpCA+wP//v/+//6jjIFCzID7A//+//7//qOMgUMHgPsD//7//v/+o4yBQ0SA+wP//v/+//6jjIFDf4D7A//+//7//qOMgUO7gPsD//7//v/+o4yBQ/iA+wP//v/+//6jjIFEM4D7A//+//7//qOMgURwgPsD//7//v/+o4yBRKyA+wP//v/+//6jjIFE6ID7A//+//7//qOMgUUjgPsD//7//v/+o4yBRWCA+wP//v/+//6jjIFFnID7A//+//7//qOMgUXXgPsD//7//v/+o4yBRhOA+wP//v/+//6jjIFGUID7A//+//7//qOMgUaLgPsD//7//v/+o4yBRseA+wP//v/+//6jjIFHA4D7A//+//7//qOMgUc/gPsD//7//v/+o4yBR3yA+wP//v/+//6jjIFHt4D7A//+//7//qOMgUf0gPsD//7//v/+o4yBSC+A+wP//v/+//6jjIFIa4D7A//+//7//qOMgUingPsD//7//v/+o4yBSOSA+wP//v/+//6jjIFJH4D7A//+//7//qOMgUlcgPsD//7//v/+o4yBSZeA+wP//v/+//6jjIFJ04D7A//+//7//qOMgUoQgPsD//7//v/+o4yBSkuA+wP//v/+//6jjIFKh4D7A//+//7//qOMgUrDgPsD//7//v/+o4yBSv+A+wP//v/+//6jjIFLPID7A//+//7//qOMgUt3gPsD//7//v/+o4yBS7SA+wP//v/+//6jjIFL74D7A//+//7//qOMgUwrgPsD//7//v/+o4yBTGiA+wP//v/+//6jjIFMpID7A//+//7//qOMgUzggPsD//7//v/+o4yBTRuA+wP//v/+//6jjIFNWID7A//+//7//qOMgU2TgPsD//7//v/+o4yBTc+A+wP//v/+//6jjIFOC4D7A//+//7//qOMgU5IgPsD//7//v/+o4yBToSA+wP//v/+//6jjIFOv4D7A//+//7//qOMgU78gPsD//7//v/+o4yBTziA+wP//v/+//6jjIFPc4D7A//+//7//qOMgU+wgPsD//7//v/+o4yBT+yA+wP//v/+//6jjIFQKID7A//+//7//qOMgVBkgPsD//7//v/+o4yBUKCA+wP//v/+//6jjIFQ24D7A//+//7//qOMgVEXgPsD//7//v/+o4yBUVSA+wP//v/+//6jjIFRj4D7A//+//7//qOMgVHMgPsD//7//v/+o4yBUgiA+wP//v/+//6jjIFSRID7A//+//7//qOMgVKAgPsD//7//v/+o4yBUruA+wP//v/+//6jjIFS94D7A//+//7//qOMgVM0gPsD//7//v/+o4yBU3CA+wP//v/+//6jjIFTrID7A//+//7//qOMgVPogPsD//7//v/+o4yBVCOA+wP//v/+//6jjIFUX4D7A//+//7//qOMgVScgPsD//7//v/+o4yBVNiA+wP//v/+//6jjIFVE4D7A//+//7//qOMgVVQgPsD//7//v/+o4yBVYyA+wP//v/+//6jjIFVx4D7A//+//7//qOMgVYDgPsD//7//v/+o4yBVj+A+wP//v/+//6jjIFWfID7A//+//7//qOMgVa4gPsD//7//v/+o4yBVvOA+wP//v/+//6jjIFXL4D7A//+//7//qOMgVdrgPsD//7//v/+o4yBV6iA+wP//v/+//6jjIFX5ID7A//+//7//qOMgVgggPsD//7//v/+o4yBWFuA+wP//v/+//6jjIFYl4D7A//+//7//qOMgVjTgPsD//7//v/+o4yBWQ+A+wP//v/+//6jjIFZS4D7A//+//7//qOMgVmHgPsD//7//v/+o4yBWcOA+wP//v/+//6jjIFaAID7A//+//7//qOMgVo7gPsD//7//v/+o4yBWneA+wP//v/+//6jjIFatID7A//+//7//qOMgVrwgPsD//7//v/+o4yBWyuA+wP//v/+//6jjIFbZ4D7A//+//7//qOMgVujgPsD//7//v/+o4yBW9+A+wP//v/+//6jjIFcHID7A//+//7//qOMgVxXgPsD//7//v/+o4yBXJOA+wP//v/+//6jjIFcz4D7A//+//7//qOMgV0MgPsD//7//v/+o4yBXUeA+wP//v/+//6jjIFdhID7A//+//7//qOMgV2/gPsD//7//v/+o4yBXfyA+wP//v/+//6jjIFeN4D7A//+//7//qOMgV5zgPsD//7//v/+o4yBXq+A+wP//v/+//6jjIFe64D7A//+//7//qOMgV8ngPsD//7//v/+o4yBX2OA+wP//v/+//6jjIFfn4D7A//+//7//qOMgV/bgPsD//7//v/+o4yBYBiA+wP//v/+//6jjIFgU4D7A//+//7//qOMgWCQgPsD//7//v/+o4yBYMuA+wP//v/+//6jjIFhCID7A//+//7//qOMgWFDgPsD//7//v/+o4yBYX+A+wP//v/+//6jjIFhu4D7A//+//7//qOMgWH3gPsD//7//v/+o4yBYjSA+wP//v/+//6jjIFib4D7A//+//7//qOMgWKsgPsD//7//v/+o4yBYueA+wP//v/+//6jjIFjJID7A//+//7//qOMgWNggPsD//7//v/+o4yBY5yA+wP//v/+//6jjIFj14D7A//+//7//qOMgWQTgPsD//7//v/+o4yBZFCA+wP//v/+//6jjIFki4D7A//+//7//qOMgWTHgPsD//7//v/+o4yBZQOA+wP//v/+//6jjIFlP4D7A//+//7//g==","4"
"","","","","","instructions","8","418791","0.0-8.0","273F071D9FAB4E18A8A523CB0712AD5D","273F071D9FAB4E18A8A523CB0712AD5D","4c25b94f-e4d9-4cf4-8d69-48dd388ca05b","8bf6df8b-65cd-48e9-a0be-8f7d173ccf15","{""participantId"":""273F071D9FAB4E18A8A523CB0712AD5D"",""assignmentId"":""4c25b94f-e4d9-4cf4-8d69-48dd388ca05b"",""projectId"":""8bf6df8b-65cd-48e9-a0be-8f7d173ccf15""}","https://test12345.live/?participantId=273F071D9FAB4E18A8A523CB0712AD5D&assignmentId=4c25b94f-e4d9-4cf4-8d69-48dd388ca05b&projectId=8bf6df8b-65cd-48e9-a0be-8f7d173ccf15","[{""stimulus"":""images/schemes/flight_scheme/flight_0.png"",""stimulus_width"":""600"",""stimulus_height"":""600"",""choices"":[],""prompt"":"""",""trial_duration"":""5000""},{""stimulus"":""images/schemes/restaurant_scheme/restaurant_0.png"",""stimulus_width"":""600"",""stimulus_height"":""600"",""choices"":[],""prompt"":"""",""trial_duration"":""5000""},{""stimulus"":""images/celebs/timeline_a/0_celebs_a.png"",""choices"":[],""prompt"":"""",""stimulus_width"":""600"",""stimulus_height"":""600"",""trial_duration"":""5000""},{""stimulus"":""images/celebs/timeline_b/0_celebs_b.png"",""stimulus_width"":""600"",""stimulus_height"":""600"",""choices"":[],""prompt"":"""",""trial_duration"":""5000""},{""stimulus"":""images/stories/paris_story/paris_story_0.png"",""stimulus_width"":""600"",""stimulus_height"":""600"",""choices"":[],""prompt"":"""",""trial_duration"":""5000""},{""stimulus"":""images/stories/market_story/market_story_0.png"",""stimulus_width"":""600"",""stimulus_height"":""600"",""choices"":[],""prompt"":"""",""trial_duration"":""5000""}]","273F071D9FAB4E18A8A523CB0712AD5D-2024-07-22-22-45-22","[{""page_index"":0,""viewing_time"":2942}]","2942","","","",""
"","","","","","image-button-response","9","423808","0.0-9.0","273F071D9FAB4E18A8A523CB0712AD5D","273F071D9FAB4E18A8A523CB0712AD5D","4c25b94f-e4d9-4cf4-8d69-48dd388ca05b","8bf6df8b-65cd-48e9-a0be-8f7d173ccf15","{""participantId"":""273F071D9FAB4E18A8A523CB0712AD5D"",""assignmentId"":""4c25b94f-e4d9-4cf4-8d69-48dd388ca05b"",""projectId"":""8bf6df8b-65cd-48e9-a0be-8f7d173ccf15""}","https://test12345.live/?participantId=273F071D9FAB4E18A8A523CB0712AD5D&assignmentId=4c25b94f-e4d9-4cf4-8d69-48dd388ca05b&projectId=8bf6df8b-65cd-48e9-a0be-8f7d173ccf15","[{""stimulus"":""images/schemes/flight_scheme/flight_0.png"",""stimulus_width"":""600"",""stimulus_height"":""600"",""choices"":[],""prompt"":"""",""trial_duration"":""5000""},{""stimulus"":""images/schemes/restaurant_scheme/restaurant_0.png"",""stimulus_width"":""600"",""stimulus_height"":""600"",""choices"":[],""prompt"":"""",""trial_duration"":""5000""},{""stimulus"":""images/celebs/timeline_a/0_celebs_a.png"",""choices"":[],""prompt"":"""",""stimulus_width"":""600"",""stimulus_height"":""600"",""trial_duration"":""5000""},{""stimulus"":""images/celebs/timeline_b/0_celebs_b.png"",""stimulus_width"":""600"",""stimulus_height"":""600"",""choices"":[],""prompt"":"""",""trial_duration"":""5000""},{""stimulus"":""images/stories/paris_story/paris_story_0.png"",""stimulus_width"":""600"",""stimulus_height"":""600"",""choices"":[],""prompt"":"""",""trial_duration"":""5000""},{""stimulus"":""images/stories/market_story/market_story_0.png"",""stimulus_width"":""600"",""stimulus_height"":""600"",""choices"":[],""prompt"":"""",""trial_duration"":""5000""}]","273F071D9FAB4E18A8A523CB0712AD5D-2024-07-22-22-45-22","","null","","images/celebs/timeline_a/0_celebs_a.png","null",""
"","","","","","html-audio-response","10","445092","0.0-10.0","273F071D9FAB4E18A8A523CB0712AD5D","273F071D9FAB4E18A8A523CB0712AD5D","4c25b94f-e4d9-4cf4-8d69-48dd388ca05b","8bf6df8b-65cd-48e9-a0be-8f7d173ccf15","{""participantId"":""273F071D9FAB4E18A8A523CB0712AD5D"",""assignmentId"":""4c25b94f-e4d9-4cf4-8d69-48dd388ca05b"",""projectId"":""8bf6df8b-65cd-48e9-a0be-8f7d173ccf15""}","https://test12345.live/?participantId=273F071D9FAB4E18A8A523CB0712AD5D&assignmentId=4c25b94f-e4d9-4cf4-8d69-48dd388ca05b&projectId=8bf6df8b-65cd-48e9-a0be-8f7d173ccf15","[{""stimulus"":""images/schemes/flight_scheme/flight_0.png"",""stimulus_width"":""600"",""stimulus_height"":""600"",""choices"":[],""prompt"":"""",""trial_duration"":""5000""},{""stimulus"":""images/schemes/restaurant_scheme/restaurant_0.png"",""stimulus_width"":""600"",""stimulus_height"":""600"",""choices"":[],""prompt"":"""",""trial_duration"":""5000""},{""stimulus"":""images/celebs/timeline_a/0_celebs_a.png"",""choices"":[],""prompt"":"""",""stimulus_width"":""600"",""stimulus_height"":""600"",""trial_duration"":""5000""},{""stimulus"":""images/celebs/timeline_b/0_celebs_b.png"",""stimulus_width"":""600"",""stimulus_height"":""600"",""choices"":[],""prompt"":"""",""trial_duration"":""5000""},{""stimulus"":""images/stories/paris_story/paris_story_0.png"",""stimulus_width"":""600"",""stimulus_height"":""600"",""choices"":[],""prompt"":"""",""trial_duration"":""5000""},{""stimulus"":""images/stories/market_story/market_story_0.png"",""stimulus_width"":""600"",""stimulus_height"":""600"",""choices"":[],""prompt"":"""",""trial_duration"":""5000""}]","273F071D9FAB4E18A8A523CB0712AD5D-2024-07-22-22-45-22","","19958","","<span style=""color: red; font-size: 24px""> NOW RECORDING</span>
        <p>Please say out loud all the images you saw in part 1 of the experiment, as many as you can remember. The images can be said in any order.</p>","GkXfo59ChoEBQveBAULygQRC84EIQoKEd2VibUKHgQRChYECGFOAZwH/////////FUmpZpkq17GDD0JATYCGQ2hyb21lV0GGQ2hyb21lFlSua7+uvdeBAXPFhwSjA5pq+wGDgQKGhkFfT1BVU2Oik09wdXNIZWFkAQEAAIC7AAAAAADhjbWERzuAAJ+BAWJkgSAfQ7Z1Af/////////ngQCjjIEAAID7A//+//7//qOMgQA7gPsD//7//v/+o4yBAHeA+wP//v/+//6jjIEAs4D7A//+//7//qOMgQDvgPsD//7//v/+o4yBASuA+wP//v/+//6jjIEBZ4D7A//+//7//qOMgQGjgPsD//7//v/+o4yBAeCA+wP//v/+//6jjIECG4D7A//+//7//qOMgQJXgPsD//7//v/+o4yBApOA+wP//v/+//6jjIEC0ID7A//+//7//qOMgQMLgPsD//7//v/+o4yBA0eA+wP//v/+//6jjIEDg4D7A//+//7//qOMgQPAgPsD//7//v/+o4yBA/uA+wP//v/+//6jjIEEN4D7A//+//7//qOMgQRzgPsD//7//v/+o4yBBLCA+wP//v/+//6jjIEE64D7A//+//7//qOMgQUngPsD//7//v/+o4yBBWOA+wP//v/+//6jjIEFn4D7A//+//7//qOMgQXbgPsD//7//v/+o4yBBheA+wP//v/+//6jjIEGU4D7A//+//7//qOMgQaPgPsD//7//v/+o4yBBsuA+wP//v/+//6jjIEHB4D7A//+//7//qOMgQdEgPsD//7//v/+o4yBB3+A+wP//v/+//6jjIEHvID7A//+//7//qOMgQf4gPsD//7//v/+o4yBCDOA+wP//v/+//6jjIEIb4D7A//+//7//qOMgQisgPsD//7//v/+o4yBCOeA+wP//v/+//6jjIEJI4D7A//+//7//qOMgQlfgPsD//7//v/+o4yBCZuA+wP//v/+//6jjIEJ14D7A//+//7//qOMgQoTgPsD//7//v/+o4yBClCA+wP//v/+//6jjIEKi4D7A//+//7//qOMgQrHgPsD//7//v/+o4yBCwSA+wP//v/+//6jjIELP4D7A//+//7//qOMgQt8gPsD//7//v/+o4yBC7eA+wP//v/+//6jjIEL9ID7A//+//7//qOMgQwvgPsD//7//v/+o4yBDGuA+wP//v/+//6jjIEMp4D7A//+//7//qOMgQzjgPsD//7//v/+o4yBDR+A+wP//v/+//6jjIENW4D7A//+//7//qOMgQ2XgPsD//7//v/+o4yBDdOA+wP//v/+//6jjIEOD4D7A//+//7//qOMgQ5LgPsD//7//v/+o4yBDoeA+wP//v/+//6jjIEOw4D7A//+//7//qOMgQ8AgPsD//7//v/+o4yBDzuA+wP//v/+//6jjIEPd4D7A//+//7//qOMgQ+zgPsD//7//v/+o4yBD++A+wP//v/+//6jjIEQK4D7A//+//7//qOMgRBngPsD//7//v/+o4yBEKOA+wP//v/+//6jjIEQ34D7A//+//7//qOMgREbgPsD//7//v/+o4yBEVeA+wP//v/+//6jjIERk4D7A//+//7//qOMgRHPgPsD//7//v/+o4yBEgyA+wP//v/+//6jjIESSID7A//+//7//qOMgRKDgPsD//7//v/+o4yBEr+A+wP//v/+//6jjIES+4D7A//+//7//qOMgRM3gPsD//7//v/+o4yBE3SA+wP//v/+//6jjIETr4D7A//+//7//qOMgRPrgPsD//7//v/+o4yBFCeA+wP//v/+//6jjIEUY4D7A//+//7//qOMgRSfgPsD//7//v/+o4yBFNuA+wP//v/+//6jjIEVF4D7A//+//7//qOMgRVTgPsD//7//v/+o4yBFY+A+wP//v/+//6jjIEVy4D7A//+//7//qOMgRYHgPsD//7//v/+o4yBFkOA+wP//v/+//6jjIEWf4D7A//+//7//qOMgRa8gPsD//7//v/+o4yBFveA+wP//v/+//6jjIEXM4D7A//+//7//qOMgRdvgPsD//7//v/+o4yBF6uA+wP//v/+//6jjIEX54D7A//+//7//qOMgRgjgPsD//7//v/+o4yBGF+A+wP//v/+//6jjIEYm4D7A//+//7//qOMgRjXgPsD//7//v/+o4yBGROA+wP//v/+//6jjIEZT4D7A//+//7//qOMgRmLgPsD//7//v/+o4yBGceA+wP//v/+//6jjIEaA4D7A//+//7//qOMgRo/gPsD//7//v/+o4yBGnuA+wP//v/+//6jjIEat4D7A//+//7//qOMgRr0gPsD//7//v/+o4yBGy+A+wP//v/+//6jjIEba4D7A//+//7//qOMgRungPsD//7//v/+o4yBG+OA+wP//v/+//6jjIEcH4D7A//+//7//qOMgRxbgPsD//7//v/+o4yBHJeA+wP//v/+//6jjIEc04D7A//+//7//qOMgR0PgPsD//7//v/+o4yBHUuA+wP//v/+//6jjIEdh4D7A//+//7//qOMgR3DgPsD//7//v/+o4yBHf+A+wP//v/+//6jjIEeO4D7A//+//7//qOMgR53gPsD//7//v/+o4yBHrOA+wP//v/+//6jjIEe74D7A//+//7//qOMgR8rgPsD//7//v/+o4yBH2eA+wP//v/+//6jjIEfo4D7A//+//7//qOMgR/fgPsD//7//v/+o4yBIByA+wP//v/+//6jjIEgV4D7A//+//7//qOMgSCTgPsD//7//v/+o4yBIM+A+wP//v/+//6jjIEhC4D7A//+//7//qOMgSFHgPsD//7//v/+o4yBIYOA+wP//v/+//6jjIEhv4D7A//+//7//qOMgSH7gPsD//7//v/+o4yBIjeA+wP//v/+//6jjIEic4D7A//+//7//qOMgSKvgPsD//7//v/+o4yBIuuA+wP//v/+//6jjIEjJ4D7A//+//7//qOMgSNjgPsD//7//v/+o4yBI5+A+wP//v/+//6jjIEj24D7A//+//7//qOMgSQXgPsD//7//v/+o4yBJFOA+wP//v/+//6jjIEkj4D7A//+//7//qOMgSTLgPsD//7//v/+o4yBJQeA+wP//v/+//6jjIElQ4D7A//+//7//qOMgSV/gPsD//7//v/+o4yBJbuA+wP//v/+//6jjIEl94D7A//+//7//qOMgSYzgPsD//7//v/+o4yBJm+A+wP//v/+//6jjIEmq4D7A//+//7//qOMgSbngPsD//7//v/+o4yBJyOA+wP//v/+//6jjIEnX4D7A//+//7//qOMgSebgPsD//7//v/+o4yBJ9eA+wP//v/+//6jjIEoE4D7A//+//7//qOMgShPgPsD//7//v/+o4yBKIuA+wP//v/+//6jjIEox4D7A//+//7//qOMgSkDgPsD//7//v/+o4yBKT+A+wP//v/+//6jjIEpe4D7A//+//7//qOMgSm3gPsD//7//v/+o4yBKfOA+wP//v/+//6jjIEqL4D7A//+//7//qOMgSprgPsD//7//v/+o4yBKqeA+wP//v/+//6jjIEq44D7A//+//7//qOMgSsfgPsD//7//v/+o4yBK1uA+wP//v/+//6jjIErl4D7A//+//7//qOMgSvTgPsD//7//v/+o4yBLA+A+wP//v/+//6jjIEsS4D7A//+//7//qOMgSyHgPsD//7//v/+o4yBLMOA+wP//v/+//6jjIEs/4D7A//+//7//qOMgS07gPsD//7//v/+o4yBLXeA+wP//v/+//6jjIEts4D7A//+//7//qOMgS3vgPsD//7//v/+o4yBLiuA+wP//v/+//6jjIEuZ4D7A//+//7//qOMgS6jgPsD//7//v/+o4yBLt+A+wP//v/+//6jjIEvG4D7A//+//7//qOMgS9XgPsD//7//v/+o4yBL5OA+wP//v/+//6jjIEvz4D7A//+//7//qOMgTALgPsD//7//v/+o4yBMEeA+wP//v/+//6jjIEwg4D7A//+//7//qOMgTC/gPsD//7//v/+o4yBMPuA+wP//v/+//6jjIExN4D7A//+//7//qOMgTFzgPsD//7//v/+o4yBMa+A+wP//v/+//6jjIEx64D7A//+//7//qOMgTIngPsD//7//v/+o4yBMmOA+wP//v/+//6jjIEyn4D7A//+//7//qOMgTLbgPsD//7//v/+o4yBMxeA+wP//v/+//6jjIEzU4D7A//+//7//qOMgTOPgPsD//7//v/+o4yBM8uA+wP//v/+//6jjIE0B4D7A//+//7//qOMgTRDgPsD//7//v/+o4yBNH+A+wP//v/+//6jjIE0u4D7A//+//7//qOMgTT3gPsD//7//v/+o4yBNTOA+wP//v/+//6jjIE1b4D7A//+//7//qOMgTWrgPsD//7//v/+o4yBNeeA+wP//v/+//6jjIE2I4D7A//+//7//qOMgTZfgPsD//7//v/+o4yBNpuA+wP//v/+//6jjIE214D7A//+//7//qOMgTcTgPsD//7//v/+o4yBN0+A+wP//v/+//6jjIE3i4D7A//+//7//qOMgTfHgPsD//7//v/+o4yBOAOA+wP//v/+//6jjIE4P4D7A//+//7//qOMgTh7gPsD//7//v/+o4yBOLeA+wP//v/+//6jjIE484D7A//+//7//qOMgTkvgPsD//7//v/+o4yBOWuA+wP//v/+//6jjIE5p4D7A//+//7//qOMgTnjgPsD//7//v/+o4yBOh+A+wP//v/+//6jjIE6W4D7A//+//7//qOMgTqXgPsD//7//v/+o4yBOtOA+wP//v/+//6jjIE7D4D7A//+//7//qOMgTtLgPsD//7//v/+o4yBO4eA+wP//v/+//6jjIE7w4D7A//+//7//qOMgTv/gPsD//7//v/+o4yBPDuA+wP//v/+//6jjIE8d4D7A//+//7//qOMgTyzgPsD//7//v/+o4yBPO+A+wP//v/+//6jjIE9K4D7A//+//7//qOMgT1ngPsD//7//v/+o4yBPaOA+wP//v/+//6jjIE934D7A//+//7//qOMgT4bgPsD//7//v/+o4yBPleA+wP//v/+//6jjIE+k4D7A//+//7//qOMgT7PgPsD//7//v/+o4yBPwuA+wP//v/+//6jjIE/R4D7A//+//7//qOMgT+DgPsD//7//v/+o4yBP7+A+wP//v/+//6jjIE/+4D7A//+//7//qOMgUA3gPsD//7//v/+o4yBQHOA+wP//v/+//6jjIFAr4D7A//+//7//qOMgUDrgPsD//7//v/+o4yBQSeA+wP//v/+//6jjIFBY4D7A//+//7//qOMgUGfgPsD//7//v/+o4yBQduA+wP//v/+//6jjIFCF4D7A//+//7//qOMgUJTgPsD//7//v/+o4yBQo+A+wP//v/+//6jjIFCy4D7A//+//7//qOMgUMHgPsD//7//v/+o4yBQ0OA+wP//v/+//6jjIFDf4D7A//+//7//qOMgUO7gPsD//7//v/+o4yBQ/eA+wP//v/+//6jjIFEM4D7A//+//7//qOMgURvgPsD//7//v/+o4yBRKuA+wP//v/+//6jjIFE54D7A//+//7//qOMgUUjgPsD//7//v/+o4yBRV+A+wP//v/+//6jjIFFm4D7A//+//7//qOMgUXXgPsD//7//v/+o4yBRhOA+wP//v/+//6jjIFGT4D7A//+//7//qOMgUaLgPsD//7//v/+o4yBRseA+wP//v/+//6jjIFHA4D7A//+//7//qOMgUc/gPsD//7//v/+o4yBR3uA+wP//v/+//6jjIFHt4D7A//+//7//qOMgUfzgPsD//7//v/+o4yBSC+A+wP//v/+//6jjIFIa4D7A//+//7//qOMgUingPsD//7//v/+o4yBSOOA+wP//v/+//6jjIFJH4D7A//+//7//qOMgUlbgPsD//7//v/+o4yBSZeA+wP//v/+//6jjIFJ04D7A//+//7//qOMgUoPgPsD//7//v/+o4yBSkuA+wP//v/+//6jjIFKh4D7A//+//7//qOMgUrDgPsD//7//v/+o4yBSv+A+wP//v/+//6jjIFLO4D7A//+//7//qOMgUt3gPsD//7//v/+o4yBS7OA+wP//v/+//6jjIFL74D7A//+//7//qOMgUwrgPsD//7//v/+o4yBTGeA+wP//v/+//6jjIFMo4D7A//+//7//qOMgUzfgPsD//7//v/+o4yBTRuA+wP//v/+//6jjIFNV4D7A//+//7//qOMgU2TgPsD//7//v/+o4yBTc+A+wP//v/+//4=","4"
"","","","","","image-button-response","11","450102","0.0-11.0","273F071D9FAB4E18A8A523CB0712AD5D","273F071D9FAB4E18A8A523CB0712AD5D","4c25b94f-e4d9-4cf4-8d69-48dd388ca05b","8bf6df8b-65cd-48e9-a0be-8f7d173ccf15","{""participantId"":""273F071D9FAB4E18A8A523CB0712AD5D"",""assignmentId"":""4c25b94f-e4d9-4cf4-8d69-48dd388ca05b"",""projectId"":""8bf6df8b-65cd-48e9-a0be-8f7d173ccf15""}","https://test12345.live/?participantId=273F071D9FAB4E18A8A523CB0712AD5D&assignmentId=4c25b94f-e4d9-4cf4-8d69-48dd388ca05b&projectId=8bf6df8b-65cd-48e9-a0be-8f7d173ccf15","[{""stimulus"":""images/schemes/flight_scheme/flight_0.png"",""stimulus_width"":""600"",""stimulus_height"":""600"",""choices"":[],""prompt"":"""",""trial_duration"":""5000""},{""stimulus"":""images/schemes/restaurant_scheme/restaurant_0.png"",""stimulus_width"":""600"",""stimulus_height"":""600"",""choices"":[],""prompt"":"""",""trial_duration"":""5000""},{""stimulus"":""images/celebs/timeline_a/0_celebs_a.png"",""choices"":[],""prompt"":"""",""stimulus_width"":""600"",""stimulus_height"":""600"",""trial_duration"":""5000""},{""stimulus"":""images/celebs/timeline_b/0_celebs_b.png"",""stimulus_width"":""600"",""stimulus_height"":""600"",""choices"":[],""prompt"":"""",""trial_duration"":""5000""},{""stimulus"":""images/stories/paris_story/paris_story_0.png"",""stimulus_width"":""600"",""stimulus_height"":""600"",""choices"":[],""prompt"":"""",""trial_duration"":""5000""},{""stimulus"":""images/stories/market_story/market_story_0.png"",""stimulus_width"":""600"",""stimulus_height"":""600"",""choices"":[],""prompt"":"""",""trial_duration"":""5000""}]","273F071D9FAB4E18A8A523CB0712AD5D-2024-07-22-22-45-22","","null","","images/schemes/flight_scheme/flight_0.png","null",""
"","","","","","html-audio-response","12","479517","0.0-12.0","273F071D9FAB4E18A8A523CB0712AD5D","273F071D9FAB4E18A8A523CB0712AD5D","4c25b94f-e4d9-4cf4-8d69-48dd388ca05b","8bf6df8b-65cd-48e9-a0be-8f7d173ccf15","{""participantId"":""273F071D9FAB4E18A8A523CB0712AD5D"",""assignmentId"":""4c25b94f-e4d9-4cf4-8d69-48dd388ca05b"",""projectId"":""8bf6df8b-65cd-48e9-a0be-8f7d173ccf15""}","https://test12345.live/?participantId=273F071D9FAB4E18A8A523CB0712AD5D&assignmentId=4c25b94f-e4d9-4cf4-8d69-48dd388ca05b&projectId=8bf6df8b-65cd-48e9-a0be-8f7d173ccf15","[{""stimulus"":""images/schemes/flight_scheme/flight_0.png"",""stimulus_width"":""600"",""stimulus_height"":""600"",""choices"":[],""prompt"":"""",""trial_duration"":""5000""},{""stimulus"":""images/schemes/restaurant_scheme/restaurant_0.png"",""stimulus_width"":""600"",""stimulus_height"":""600"",""choices"":[],""prompt"":"""",""trial_duration"":""5000""},{""stimulus"":""images/celebs/timeline_a/0_celebs_a.png"",""choices"":[],""prompt"":"""",""stimulus_width"":""600"",""stimulus_height"":""600"",""trial_duration"":""5000""},{""stimulus"":""images/celebs/timeline_b/0_celebs_b.png"",""stimulus_width"":""600"",""stimulus_height"":""600"",""choices"":[],""prompt"":"""",""trial_duration"":""5000""},{""stimulus"":""images/stories/paris_story/paris_story_0.png"",""stimulus_width"":""600"",""stimulus_height"":""600"",""choices"":[],""prompt"":"""",""trial_duration"":""5000""},{""stimulus"":""images/stories/market_story/market_story_0.png"",""stimulus_width"":""600"",""stimulus_height"":""600"",""choices"":[],""prompt"":"""",""trial_duration"":""5000""}]","273F071D9FAB4E18A8A523CB0712AD5D-2024-07-22-22-45-22","","28177","","<span style=""color: red; font-size: 24px""> NOW RECORDING</span>
        <p>Please say out loud all the images you saw in part 1 of the experiment, as many as you can remember. The images can be said in any order.</p>","GkXfo59ChoEBQveBAULygQRC84EIQoKEd2VibUKHgQRChYECGFOAZwH/////////FUmpZpkq17GDD0JATYCGQ2hyb21lV0GGQ2hyb21lFlSua7+uvdeBAXPFhwndaFnj6MKDgQKGhkFfT1BVU2Oik09wdXNIZWFkAQEAAIC7AAAAAADhjbWERzuAAJ+BAWJkgSAfQ7Z1Af/////////ngQCjjIEAAID7A//+//7//qOMgQA8gPsD//7//v/+o4yBAHeA+wP//v/+//6jjIEAtID7A//+//7//qOMgQDvgPsD//7//v/+o4yBASyA+wP//v/+//6jjIEBaID7A//+//7//qOMgQGjgPsD//7//v/+o4yBAd+A+wP//v/+//6jjIECG4D7A//+//7//qOMgQJYgPsD//7//v/+o4yBApOA+wP//v/+//6jjIECz4D7A//+//7//qOMgQMLgPsD//7//v/+o4yBA0eA+wP//v/+//6jjIEDhID7A//+//7//qOMgQPAgPsD//7//v/+o4yBA/uA+wP//v/+//6jjIEEOID7A//+//7//qOMgQRzgPsD//7//v/+o4yBBLCA+wP//v/+//6jjIEE7ID7A//+//7//qOMgQUogPsD//7//v/+o4yBBWOA+wP//v/+//6jjIEFn4D7A//+//7//qOMgQXcgPsD//7//v/+o4yBBhiA+wP//v/+//6jjIEGU4D7A//+//7//qOMgQaPgPsD//7//v/+o4yBBsuA+wP//v/+//6jjIEHB4D7A//+//7//qOMgQdDgPsD//7//v/+o4yBB3+A+wP//v/+//6jjIEHvID7A//+//7//qOMgQf3gPsD//7//v/+o4yBCDSA+wP//v/+//6jjIEIb4D7A//+//7//qOMgQisgPsD//7//v/+o4yBCOeA+wP//v/+//6jjIEJI4D7A//+//7//qOMgQlfgPsD//7//v/+o4yBCZuA+wP//v/+//6jjIEJ14D7A//+//7//qOMgQoTgPsD//7//v/+o4yBCk+A+wP//v/+//6jjIEKi4D7A//+//7//qOMgQrIgPsD//7//v/+o4yBCwOA+wP//v/+//6jjIELP4D7A//+//7//qOMgQt8gPsD//7//v/+o4yBC7eA+wP//v/+//6jjIEL9ID7A//+//7//qOMgQwvgPsD//7//v/+o4yBDGuA+wP//v/+//6jjIEMp4D7A//+//7//qOMgQzjgPsD//7//v/+o4yBDR+A+wP//v/+//6jjIENXID7A//+//7//qOMgQ2YgPsD//7//v/+o4yBDdOA+wP//v/+//6jjIEOD4D7A//+//7//qOMgQ5LgPsD//7//v/+o4yBDoeA+wP//v/+//6jjIEOw4D7A//+//7//qOMgQ7/gPsD//7//v/+o4yBDzuA+wP//v/+//6jjIEPd4D7A//+//7//qOMgQ+zgPsD//7//v/+o4yBD++A+wP//v/+//6jjIEQK4D7A//+//7//qOMgRBogPsD//7//v/+o4yBEKSA+wP//v/+//6jjIEQ34D7A//+//7//qOMgREbgPsD//7//v/+o4yBEVeA+wP//v/+//6jjIERk4D7A//+//7//qOMgRHQgPsD//7//v/+o4yBEguA+wP//v/+//6jjIESR4D7A//+//7//qOMgRKDgPsD//7//v/+o4yBEr+A+wP//v/+//6jjIES+4D7A//+//7//qOMgRM3gPsD//7//v/+o4yBE3SA+wP//v/+//6jjIETr4D7A//+//7//qOMgRPsgPsD//7//v/+o4yBFCiA+wP//v/+//6jjIEUY4D7A//+//7//qOMgRSfgPsD//7//v/+o4yBFNyA+wP//v/+//6jjIEVF4D7A//+//7//qOMgRVTgPsD//7//v/+o4yBFY+A+wP//v/+//6jjIEVzID7A//+//7//qOMgRYHgPsD//7//v/+o4yBFkOA+wP//v/+//6jjIEWgID7A//+//7//qOMgRa7gPsD//7//v/+o4yBFveA+wP//v/+//6jjIEXM4D7A//+//7//qOMgRdvgPsD//7//v/+o4yBF6yA+wP//v/+//6jjIEX6ID7A//+//7//qOMgRgkgPsD//7//v/+o4yBGF+A+wP//v/+//6jjIEYm4D7A//+//7//qOMgRjXgPsD//7//v/+o4yBGROA+wP//v/+//6jjIEZUID7A//+//7//qOMgRmLgPsD//7//v/+o4yBGciA+wP//v/+//6jjIEaA4D7A//+//7//qOMgRo/gPsD//7//v/+o4yBGnyA+wP//v/+//6jjIEat4D7A//+//7//qOMgRrzgPsD//7//v/+o4yBGy+A+wP//v/+//6jjIEbbID7A//+//7//qOMgRuogPsD//7//v/+o4yBG+OA+wP//v/+//6jjIEcH4D7A//+//7//qOMgRxcgPsD//7//v/+o4yBHJeA+wP//v/+//6jjIEc04D7A//+//7//qOMgR0PgPsD//7//v/+o4yBHUuA+wP//v/+//6jjIEdh4D7A//+//7//qOMgR3DgPsD//7//v/+o4yBHf+A+wP//v/+//6jjIEeO4D7A//+//7//qOMgR53gPsD//7//v/+o4yBHrOA+wP//v/+//6jjIEe74D7A//+//7//qOMgR8rgPsD//7//v/+o4yBH2eA+wP//v/+//6jjIEfo4D7A//+//7//qOMgR/fgPsD//7//v/+o4yBIBuA+wP//v/+//6jjIEgV4D7A//+//7//qOMgSCUgPsD//7//v/+o4yBIM+A+wP//v/+//6jjIEhC4D7A//+//7//qOMgSFHgPsD//7//v/+o4yBIYOA+wP//v/+//6jjIEhv4D7A//+//7//qOMgSH7gPsD//7//v/+o4yBIjeA+wP//v/+//6jjIEic4D7A//+//7//qOMgSKvgPsD//7//v/+o4yBIuuA+wP//v/+//6jjIEjJ4D7A//+//7//qOMgSNjgPsD//7//v/+o4yBI5+A+wP//v/+//6jjIEj24D7A//+//7//qOMgSQYgPsD//7//v/+o4yBJFOA+wP//v/+//6jjIEkj4D7A//+//7//qOMgSTLgPsD//7//v/+o4yBJQeA+wP//v/+//6jjIElQ4D7A//+//7//qOMgSV/gPsD//7//v/+o4yBJbyA+wP//v/+//6jjIEl94D7A//+//7//qOMgSYzgPsD//7//v/+o4yBJm+A+wP//v/+//6jjIEmq4D7A//+//7//qOMgSbngPsD//7//v/+o4yBJyOA+wP//v/+//6jjIEnYID7A//+//7//qOMgSecgPsD//7//v/+o4yBJ9eA+wP//v/+//6jjIEoE4D7A//+//7//qOMgShPgPsD//7//v/+o4yBKIuA+wP//v/+//6jjIEox4D7A//+//7//qOMgSkDgPsD//7//v/+o4yBKT+A+wP//v/+//6jjIEpe4D7A//+//7//qOMgSm3gPsD//7//v/+o4yBKfOA+wP//v/+//6jjIEqL4D7A//+//7//qOMgSprgPsD//7//v/+o4yBKqeA+wP//v/+//6jjIEq44D7A//+//7//qOMgSsfgPsD//7//v/+o4yBK1uA+wP//v/+//6jjIErl4D7A//+//7//qOMgSvTgPsD//7//v/+o4yBLA+A+wP//v/+//6jjIEsS4D7A//+//7//qOMgSyIgPsD//7//v/+o4yBLMSA+wP//v/+//6jjIEs/4D7A//+//7//qOMgS07gPsD//7//v/+o4yBLXeA+wP//v/+//6jjIEts4D7A//+//7//qOMgS3vgPsD//7//v/+o4yBLiuA+wP//v/+//6jjIEuZ4D7A//+//7//qOMgS6jgPsD//7//v/+o4yBLt+A+wP//v/+//6jjIEvG4D7A//+//7//qOMgS9XgPsD//7//v/+o4yBL5OA+wP//v/+//6jjIEvz4D7A//+//7//qOMgTALgPsD//7//v/+o4yBMEeA+wP//v/+//6jjIEwg4D7A//+//7//qOMgTC/gPsD//7//v/+o4yBMPuA+wP//v/+//6jjIExN4D7A//+//7//qOMgTFzgPsD//7//v/+o4yBMa+A+wP//v/+//6jjIEx64D7A//+//7//qOMgTIngPsD//7//v/+o4yBMmOA+wP//v/+//6jjIEyn4D7A//+//7//qOMgTLbgPsD//7//v/+o4yBMxeA+wP//v/+//6jjIEzU4D7A//+//7//qOMgTOPgPsD//7//v/+o4yBM8uA+wP//v/+//6jjIE0B4D7A//+//7//qOMgTRDgPsD//7//v/+o4yBNH+A+wP//v/+//6jjIE0u4D7A//+//7//qOMgTT3gPsD//7//v/+o4yBNTOA+wP//v/+//6jjIE1b4D7A//+//7//qOMgTWrgPsD//7//v/+o4yBNeeA+wP//v/+//6jjIE2I4D7A//+//7//qOMgTZfgPsD//7//v/+o4yBNpuA+wP//v/+//6jjIE214D7A//+//7//qOMgTcTgPsD//7//v/+o4yBN0+A+wP//v/+//6jjIE3i4D7A//+//7//qOMgTfHgPsD//7//v/+o4yBOAOA+wP//v/+//6jjIE4P4D7A//+//7//qOMgTh7gPsD//7//v/+o4yBOLeA+wP//v/+//6jjIE484D7A//+//7//qOMgTkvgPsD//7//v/+o4yBOWuA+wP//v/+//6jjIE5p4D7A//+//7//qOMgTnjgPsD//7//v/+o4yBOh+A+wP//v/+//6jjIE6W4D7A//+//7//qOMgTqXgPsD//7//v/+o4yBOtOA+wP//v/+//6jjIE7D4D7A//+//7//qOMgTtLgPsD//7//v/+o4yBO4eA+wP//v/+//6jjIE7w4D7A//+//7//qOMgTv/gPsD//7//v/+o4yBPDuA+wP//v/+//6jjIE8d4D7A//+//7//qOMgTyzgPsD//7//v/+o4yBPO+A+wP//v/+//6jjIE9K4D7A//+//7//qOMgT1ngPsD//7//v/+o4yBPaOA+wP//v/+//6jjIE934D7A//+//7//qOMgT4bgPsD//7//v/+o4yBPleA+wP//v/+//6jjIE+k4D7A//+//7//qOMgT7PgPsD//7//v/+o4yBPwuA+wP//v/+//6jjIE/R4D7A//+//7//qOMgT+DgPsD//7//v/+o4yBP7+A+wP//v/+//6jjIE/+4D7A//+//7//qOMgUA3gPsD//7//v/+o4yBQHOA+wP//v/+//6jjIFAr4D7A//+//7//qOMgUDrgPsD//7//v/+o4yBQSeA+wP//v/+//6jjIFBY4D7A//+//7//qOMgUGfgPsD//7//v/+o4yBQduA+wP//v/+//6jjIFCF4D7A//+//7//qOMgUJTgPsD//7//v/+o4yBQo+A+wP//v/+//6jjIFCy4D7A//+//7//qOMgUMHgPsD//7//v/+o4yBQ0OA+wP//v/+//6jjIFDf4D7A//+//7//qOMgUO7gPsD//7//v/+o4yBQ/eA+wP//v/+//6jjIFEM4D7A//+//7//qOMgURvgPsD//7//v/+o4yBRKuA+wP//v/+//6jjIFE54D7A//+//7//qOMgUUjgPsD//7//v/+o4yBRV+A+wP//v/+//6jjIFFm4D7A//+//7//qOMgUXXgPsD//7//v/+o4yBRhOA+wP//v/+//6jjIFGT4D7A//+//7//qOMgUaLgPsD//7//v/+o4yBRseA+wP//v/+//6jjIFHA4D7A//+//7//qOMgUc/gPsD//7//v/+o4yBR3uA+wP//v/+//6jjIFHt4D7A//+//7//qOMgUfzgPsD//7//v/+o4yBSC+A+wP//v/+//6jjIFIa4D7A//+//7//qOMgUingPsD//7//v/+o4yBSOOA+wP//v/+//6jjIFJH4D7A//+//7//qOMgUlbgPsD//7//v/+o4yBSZeA+wP//v/+//6jjIFJ04D7A//+//7//qOMgUoPgPsD//7//v/+o4yBSkuA+wP//v/+//6jjIFKh4D7A//+//7//qOMgUrDgPsD//7//v/+o4yBSv+A+wP//v/+//6jjIFLO4D7A//+//7//qOMgUt3gPsD//7//v/+o4yBS7OA+wP//v/+//6jjIFL74D7A//+//7//qOMgUwrgPsD//7//v/+o4yBTGeA+wP//v/+//6jjIFMo4D7A//+//7//qOMgUzfgPsD//7//v/+o4yBTRuA+wP//v/+//6jjIFNV4D7A//+//7//qOMgU2TgPsD//7//v/+o4yBTc+A+wP//v/+//6jjIFOC4D7A//+//7//qOMgU5HgPsD//7//v/+o4yBToOA+wP//v/+//6jjIFOv4D7A//+//7//qOMgU77gPsD//7//v/+o4yBTzeA+wP//v/+//6jjIFPc4D7A//+//7//qOMgU+vgPsD//7//v/+o4yBT+uA+wP//v/+//6jjIFQJ4D7A//+//7//qOMgVBjgPsD//7//v/+o4yBUJ+A+wP//v/+//6jjIFQ24D7A//+//7//qOMgVEXgPsD//7//v/+o4yBUVOA+wP//v/+//6jjIFRj4D7A//+//7//qOMgVHLgPsD//7//v/+o4yBUgeA+wP//v/+//6jjIFSQ4D7A//+//7//qOMgVJ/gPsD//7//v/+o4yBUruA+wP//v/+//6jjIFS94D7A//+//7//qOMgVMzgPsD//7//v/+o4yBU2+A+wP//v/+//6jjIFTq4D7A//+//7//qOMgVPngPsD//7//v/+o4yBVCOA+wP//v/+//6jjIFUX4D7A//+//7//qOMgVSbgPsD//7//v/+o4yBVNeA+wP//v/+//6jjIFVE4D7A//+//7//qOMgVVPgPsD//7//v/+o4yBVYuA+wP//v/+//6jjIFVx4D7A//+//7//qOMgVYDgPsD//7//v/+o4yBVj+A+wP//v/+//6jjIFWe4D7A//+//7//qOMgVa3gPsD//7//v/+o4yBVvOA+wP//v/+//6jjIFXL4D7A//+//7//qOMgVdrgPsD//7//v/+o4yBV6eA+wP//v/+//6jjIFX44D7A//+//7//qOMgVgfgPsD//7//v/+o4yBWFuA+wP//v/+//6jjIFYl4D7A//+//7//qOMgVjTgPsD//7//v/+o4yBWQ+A+wP//v/+//6jjIFZS4D7A//+//7//qOMgVmHgPsD//7//v/+o4yBWcOA+wP//v/+//6jjIFZ/4D7A//+//7//qOMgVo7gPsD//7//v/+o4yBWneA+wP//v/+//6jjIFas4D7A//+//7//qOMgVrvgPsD//7//v/+o4yBWyuA+wP//v/+//6jjIFbZ4D7A//+//7//qOMgVujgPsD//7//v/+o4yBW9+A+wP//v/+//6jjIFcG4D7A//+//7//qOMgVxXgPsD//7//v/+o4yBXJOA+wP//v/+//6jjIFcz4D7A//+//7//qOMgV0LgPsD//7//v/+o4yBXUeA+wP//v/+//6jjIFdg4D7A//+//7//qOMgV2/gPsD//7//v/+o4yBXfuA+wP//v/+//6jjIFeN4D7A//+//7//qOMgV5zgPsD//7//v/+o4yBXq+A+wP//v/+//6jjIFe64D7A//+//7//qOMgV8ngPsD//7//v/+o4yBX2OA+wP//v/+//6jjIFfn4D7A//+//7//qOMgV/bgPsD//7//v/+o4yBYBeA+wP//v/+//6jjIFgU4D7A//+//7//qOMgWCPgPsD//7//v/+o4yBYMuA+wP//v/+//6jjIFhB4D7A//+//7//qOMgWFDgPsD//7//v/+o4yBYX+A+wP//v/+//6jjIFhu4D7A//+//7//qOMgWH3gPsD//7//v/+o4yBYjOA+wP//v/+//6jjIFib4D7A//+//7//qOMgWKrgPsD//7//v/+o4yBYueA+wP//v/+//6jjIFjI4D7A//+//7//qOMgWNfgPsD//7//v/+o4yBY5uA+wP//v/+//6jjIFj14D7A//+//7//qOMgWQTgPsD//7//v/+o4yBZE+A+wP//v/+//6jjIFki4D7A//+//7//qOMgWTHgPsD//7//v/+o4yBZQOA+wP//v/+//6jjIFlP4D7A//+//7//qOMgWV7gPsD//7//v/+o4yBZbeA+wP//v/+//6jjIFl84D7A//+//7//qOMgWYvgPsD//7//v/+o4yBZmuA+wP//v/+//6jjIFmp4D7A//+//7//qOMgWbjgPsD//7//v/+o4yBZx+A+wP//v/+//6jjIFnW4D7A//+//7//qOMgWeXgPsD//7//v/+o4yBZ9OA+wP//v/+//6jjIFoD4D7A//+//7//qOMgWhLgPsD//7//v/+o4yBaIeA+wP//v/+//6jjIFow4D7A//+//7//qOMgWj/gPsD//7//v/+o4yBaTuA+wP//v/+//6jjIFpd4D7A//+//7//qOMgWmzgPsD//7//v/+o4yBae+A+wP//v/+//6jjIFqK4D7A//+//7//qOMgWpngPsD//7//v/+o4yBaqOA+wP//v/+//6jjIFq34D7A//+//7//qOMgWsbgPsD//7//v/+o4yBa1eA+wP//v/+//6jjIFrk4D7A//+//7//qOMgWvPgPsD//7//v/+o4yBbAuA+wP//v/+//6jjIFsR4D7A//+//7//qOMgWyDgPsD//7//v/+o4yBbL+A+wP//v/+//6jjIFs+4D7A//+//7//qOMgW03gPsD//7//v/+o4yBbXOA+wP//v/+//6jjIFtr4D7A//+//7//qOMgW3rgPsD//7//v/+","4"
"","","","","","image-button-response","13","484525","0.0-13.0","273F071D9FAB4E18A8A523CB0712AD5D","273F071D9FAB4E18A8A523CB0712AD5D","4c25b94f-e4d9-4cf4-8d69-48dd388ca05b","8bf6df8b-65cd-48e9-a0be-8f7d173ccf15","{""participantId"":""273F071D9FAB4E18A8A523CB0712AD5D"",""assignmentId"":""4c25b94f-e4d9-4cf4-8d69-48dd388ca05b"",""projectId"":""8bf6df8b-65cd-48e9-a0be-8f7d173ccf15""}","https://test12345.live/?participantId=273F071D9FAB4E18A8A523CB0712AD5D&assignmentId=4c25b94f-e4d9-4cf4-8d69-48dd388ca05b&projectId=8bf6df8b-65cd-48e9-a0be-8f7d173ccf15","[{""stimulus"":""images/schemes/flight_scheme/flight_0.png"",""stimulus_width"":""600"",""stimulus_height"":""600"",""choices"":[],""prompt"":"""",""trial_duration"":""5000""},{""stimulus"":""images/schemes/restaurant_scheme/restaurant_0.png"",""stimulus_width"":""600"",""stimulus_height"":""600"",""choices"":[],""prompt"":"""",""trial_duration"":""5000""},{""stimulus"":""images/celebs/timeline_a/0_celebs_a.png"",""choices"":[],""prompt"":"""",""stimulus_width"":""600"",""stimulus_height"":""600"",""trial_duration"":""5000""},{""stimulus"":""images/celebs/timeline_b/0_celebs_b.png"",""stimulus_width"":""600"",""stimulus_height"":""600"",""choices"":[],""prompt"":"""",""trial_duration"":""5000""},{""stimulus"":""images/stories/paris_story/paris_story_0.png"",""stimulus_width"":""600"",""stimulus_height"":""600"",""choices"":[],""prompt"":"""",""trial_duration"":""5000""},{""stimulus"":""images/stories/market_story/market_story_0.png"",""stimulus_width"":""600"",""stimulus_height"":""600"",""choices"":[],""prompt"":"""",""trial_duration"":""5000""}]","273F071D9FAB4E18A8A523CB0712AD5D-2024-07-22-22-45-22","","null","","images/schemes/restaurant_scheme/restaurant_0.png","null",""
"","","","","","html-audio-response","14","575409","0.0-14.0","273F071D9FAB4E18A8A523CB0712AD5D","273F071D9FAB4E18A8A523CB0712AD5D","4c25b94f-e4d9-4cf4-8d69-48dd388ca05b","8bf6df8b-65cd-48e9-a0be-8f7d173ccf15","{""participantId"":""273F071D9FAB4E18A8A523CB0712AD5D"",""assignmentId"":""4c25b94f-e4d9-4cf4-8d69-48dd388ca05b"",""projectId"":""8bf6df8b-65cd-48e9-a0be-8f7d173ccf15""}","https://test12345.live/?participantId=273F071D9FAB4E18A8A523CB0712AD5D&assignmentId=4c25b94f-e4d9-4cf4-8d69-48dd388ca05b&projectId=8bf6df8b-65cd-48e9-a0be-8f7d173ccf15","[{""stimulus"":""images/schemes/flight_scheme/flight_0.png"",""stimulus_width"":""600"",""stimulus_height"":""600"",""choices"":[],""prompt"":"""",""trial_duration"":""5000""},{""stimulus"":""images/schemes/restaurant_scheme/restaurant_0.png"",""stimulus_width"":""600"",""stimulus_height"":""600"",""choices"":[],""prompt"":"""",""trial_duration"":""5000""},{""stimulus"":""images/celebs/timeline_a/0_celebs_a.png"",""choices"":[],""prompt"":"""",""stimulus_width"":""600"",""stimulus_height"":""600"",""trial_duration"":""5000""},{""stimulus"":""images/celebs/timeline_b/0_celebs_b.png"",""stimulus_width"":""600"",""stimulus_height"":""600"",""choices"":[],""prompt"":"""",""trial_duration"":""5000""},{""stimulus"":""images/stories/paris_story/paris_story_0.png"",""stimulus_width"":""600"",""stimulus_height"":""600"",""choices"":[],""prompt"":"""",""trial_duration"":""5000""},{""stimulus"":""images/stories/market_story/market_story_0.png"",""stimulus_width"":""600"",""stimulus_height"":""600"",""choices"":[],""prompt"":"""",""trial_duration"":""5000""}]","273F071D9FAB4E18A8A523CB0712AD5D-2024-07-22-22-45-22","","7409","","<span style=""color: red; font-size: 24px""> NOW RECORDING</span>
        <p>Please say out loud all the images you saw in part 1 of the experiment, as many as you can remember. The images can be said in any order.</p>","GkXfo59ChoEBQveBAULygQRC84EIQoKEd2VibUKHgQRChYECGFOAZwH/////////FUmpZpkq17GDD0JATYCGQ2hyb21lV0GGQ2hyb21lFlSua7+uvdeBAXPFhxor9HbTpMqDgQKGhkFfT1BVU2Oik09wdXNIZWFkAQEAAIC7AAAAAADhjbWERzuAAJ+BAWJkgSAfQ7Z1Af/////////ngQCjjIEAAID7A//+//7//qOMgQA7gPsD//7//v/+o4yBAHiA+wP//v/+//6jjIEAtID7A//+//7//qOMgQDvgPsD//7//v/+o4yBASyA+wP//v/+//6jjIEBZ4D7A//+//7//qOMgQGjgPsD//7//v/+o4yBAd+A+wP//v/+//6jjIECG4D7A//+//7//qOMgQJXgPsD//7//v/+o4yBApSA+wP//v/+//6jjIEC0ID7A//+//7//qOMgQMMgPsD//7//v/+o4yBA0iA+wP//v/+//6jjIEDhID7A//+//7//qOMgQPAgPsD//7//v/+o4yBA/yA+wP//v/+//6jjIEEOID7A//+//7//qOMgQR0gPsD//7//v/+o4yBBLCA+wP//v/+//6jjIEE7ID7A//+//7//qOMgQUogPsD//7//v/+o4yBBWOA+wP//v/+//6jjIEFoID7A//+//7//qOMgQXcgPsD//7//v/+o4yBBheA+wP//v/+//6jjIEGVID7A//+//7//qOMgQaQgPsD//7//v/+o4yBBsyA+wP//v/+//6jjIEHCID7A//+//7//qOMgQdEgPsD//7//v/+o4yBB3+A+wP//v/+//6jjIEHvID7A//+//7//qOMgQf4gPsD//7//v/+o4yBCDOA+wP//v/+//6jjIEIb4D7A//+//7//qOMgQirgPsD//7//v/+o4yBCOiA+wP//v/+//6jjIEJJID7A//+//7//qOMgQlggPsD//7//v/+o4yBCZuA+wP//v/+//6jjIEJ14D7A//+//7//qOMgQoTgPsD//7//v/+o4yBClCA+wP//v/+//6jjIEKjID7A//+//7//qOMgQrIgPsD//7//v/+o4yBCwOA+wP//v/+//6jjIELP4D7A//+//7//qOMgQt8gPsD//7//v/+o4yBC7iA+wP//v/+//6jjIEL84D7A//+//7//qOMgQwwgPsD//7//v/+o4yBDGuA+wP//v/+//6jjIEMp4D7A//+//7//qOMgQzjgPsD//7//v/+o4yBDR+A+wP//v/+//6jjIENXID7A//+//7//qOMgQ2YgPsD//7//v/+o4yBDdOA+wP//v/+//6jjIEOD4D7A//+//7//qOMgQ5MgPsD//7//v/+o4yBDoiA+wP//v/+//6jjIEOxID7A//+//7//qOMgQ8AgPsD//7//v/+o4yBDzyA+wP//v/+//6jjIEPeID7A//+//7//qOMgQ+zgPsD//7//v/+o4yBD++A+wP//v/+//6jjIEQLID7A//+//7//qOMgRBogPsD//7//v/+o4yBEKOA+wP//v/+//6jjIEQ4ID7A//+//7//qOMgREbgPsD//7//v/+o4yBEViA+wP//v/+//6jjIERk4D7A//+//7//qOMgRHQgPsD//7//v/+o4yBEgyA+wP//v/+//6jjIESR4D7A//+//7//qOMgRKEgPsD//7//v/+o4yBEsCA+wP//v/+//6jjIES+4D7A//+//7//qOMgRM3gPsD//7//v/+o4yBE3SA+wP//v/+//6jjIETr4D7A//+//7//qOMgRPsgPsD//7//v/+o4yBFCeA+wP//v/+//6jjIEUY4D7A//+//7//qOMgRSggPsD//7//v/+o4yBFNuA+wP//v/+//6jjIEVGID7A//+//7//qOMgRVUgPsD//7//v/+o4yBFZCA+wP//v/+//6jjIEVzID7A//+//7//qOMgRYHgPsD//7//v/+o4yBFkSA+wP//v/+//6jjIEWgID7A//+//7//qOMgRa8gPsD//7//v/+o4yBFviA+wP//v/+//6jjIEXM4D7A//+//7//qOMgRdwgPsD//7//v/+o4yBF6uA+wP//v/+//6jjIEX6ID7A//+//7//qOMgRgkgPsD//7//v/+o4yBGF+A+wP//v/+//6jjIEYnID7A//+//7//qOMgRjYgPsD//7//v/+o4yBGROA+wP//v/+//6jjIEZUID7A//+//7//qOMgRmLgPsD//7//v/+o4yBGciA+wP//v/+//6jjIEaBID7A//+//7//qOMgRpAgPsD//7//v/+o4yBGnyA+wP//v/+//6jjIEauID7A//+//7//qOMgRr0gPsD//7//v/+o4yBGy+A+wP//v/+//6jjIEba4D7A//+//7//qOMgRuogPsD//7//v/+o4yBG+SA+wP//v/+//6jjIEcH4D7A//+//7//qOMgRxbgPsD//7//v/+o4yBHJiA+wP//v/+//6jjIEc04D7A//+//7//g==","6"
"","","","","","image-button-response","15","580413","0.0-15.0","273F071D9FAB4E18A8A523CB0712AD5D","273F071D9FAB4E18A8A523CB0712AD5D","4c25b94f-e4d9-4cf4-8d69-48dd388ca05b","8bf6df8b-65cd-48e9-a0be-8f7d173ccf15","{""participantId"":""273F071D9FAB4E18A8A523CB0712AD5D"",""assignmentId"":""4c25b94f-e4d9-4cf4-8d69-48dd388ca05b"",""projectId"":""8bf6df8b-65cd-48e9-a0be-8f7d173ccf15""}","https://test12345.live/?participantId=273F071D9FAB4E18A8A523CB0712AD5D&assignmentId=4c25b94f-e4d9-4cf4-8d69-48dd388ca05b&projectId=8bf6df8b-65cd-48e9-a0be-8f7d173ccf15","[{""stimulus"":""images/schemes/flight_scheme/flight_0.png"",""stimulus_width"":""600"",""stimulus_height"":""600"",""choices"":[],""prompt"":"""",""trial_duration"":""5000""},{""stimulus"":""images/schemes/restaurant_scheme/restaurant_0.png"",""stimulus_width"":""600"",""stimulus_height"":""600"",""choices"":[],""prompt"":"""",""trial_duration"":""5000""},{""stimulus"":""images/celebs/timeline_a/0_celebs_a.png"",""choices"":[],""prompt"":"""",""stimulus_width"":""600"",""stimulus_height"":""600"",""trial_duration"":""5000""},{""stimulus"":""images/celebs/timeline_b/0_celebs_b.png"",""stimulus_width"":""600"",""stimulus_height"":""600"",""choices"":[],""prompt"":"""",""trial_duration"":""5000""},{""stimulus"":""images/stories/paris_story/paris_story_0.png"",""stimulus_width"":""600"",""stimulus_height"":""600"",""choices"":[],""prompt"":"""",""trial_duration"":""5000""},{""stimulus"":""images/stories/market_story/market_story_0.png"",""stimulus_width"":""600"",""stimulus_height"":""600"",""choices"":[],""prompt"":"""",""trial_duration"":""5000""}]","273F071D9FAB4E18A8A523CB0712AD5D-2024-07-22-22-45-22","","null","","images/stories/market_story/market_story_0.png","null",""
"","","","","","html-audio-response","16","598556","0.0-16.0","273F071D9FAB4E18A8A523CB0712AD5D","273F071D9FAB4E18A8A523CB0712AD5D","4c25b94f-e4d9-4cf4-8d69-48dd388ca05b","8bf6df8b-65cd-48e9-a0be-8f7d173ccf15","{""participantId"":""273F071D9FAB4E18A8A523CB0712AD5D"",""assignmentId"":""4c25b94f-e4d9-4cf4-8d69-48dd388ca05b"",""projectId"":""8bf6df8b-65cd-48e9-a0be-8f7d173ccf15""}","https://test12345.live/?participantId=273F071D9FAB4E18A8A523CB0712AD5D&assignmentId=4c25b94f-e4d9-4cf4-8d69-48dd388ca05b&projectId=8bf6df8b-65cd-48e9-a0be-8f7d173ccf15","[{""stimulus"":""images/schemes/flight_scheme/flight_0.png"",""stimulus_width"":""600"",""stimulus_height"":""600"",""choices"":[],""prompt"":"""",""trial_duration"":""5000""},{""stimulus"":""images/schemes/restaurant_scheme/restaurant_0.png"",""stimulus_width"":""600"",""stimulus_height"":""600"",""choices"":[],""prompt"":"""",""trial_duration"":""5000""},{""stimulus"":""images/celebs/timeline_a/0_celebs_a.png"",""choices"":[],""prompt"":"""",""stimulus_width"":""600"",""stimulus_height"":""600"",""trial_duration"":""5000""},{""stimulus"":""images/celebs/timeline_b/0_celebs_b.png"",""stimulus_width"":""600"",""stimulus_height"":""600"",""choices"":[],""prompt"":"""",""trial_duration"":""5000""},{""stimulus"":""images/stories/paris_story/paris_story_0.png"",""stimulus_width"":""600"",""stimulus_height"":""600"",""choices"":[],""prompt"":"""",""trial_duration"":""5000""},{""stimulus"":""images/stories/market_story/market_story_0.png"",""stimulus_width"":""600"",""stimulus_height"":""600"",""choices"":[],""prompt"":"""",""trial_duration"":""5000""}]","273F071D9FAB4E18A8A523CB0712AD5D-2024-07-22-22-45-22","","5689","","<span style=""color: red; font-size: 24px""> NOW RECORDING</span>
        <p>Please say out loud all the images you saw in part 1 of the experiment, as many as you can remember. The images can be said in any order.</p>","GkXfo59ChoEBQveBAULygQRC84EIQoKEd2VibUKHgQRChYECGFOAZwH/////////FUmpZpkq17GDD0JATYCGQ2hyb21lV0GGQ2hyb21lFlSua7+uvdeBAXPFhyQAYhRBiYuDgQKGhkFfT1BVU2Oik09wdXNIZWFkAQEAAIC7AAAAAADhjbWERzuAAJ+BAWJkgSAfQ7Z1Af/////////ngQCjjIEAAID7A//+//7//qOMgQA7gPsD//7//v/+o4yBAHiA+wP//v/+//6jjIEAtID7A//+//7//qOMgQDwgPsD//7//v/+o4yBASyA+wP//v/+//6jjIEBaID7A//+//7//qOMgQGkgPsD//7//v/+o4yBAeCA+wP//v/+//6jjIECG4D7A//+//7//qOMgQJYgPsD//7//v/+o4yBApSA+wP//v/+//6jjIECz4D7A//+//7//qOMgQMMgPsD//7//v/+o4yBA0iA+wP//v/+//6jjIEDhID7A//+//7//qOMgQPAgPsD//7//v/+o4yBA/uA+wP//v/+//6jjIEEOID7A//+//7//qOMgQR0gPsD//7//v/+o4yBBLCA+wP//v/+//6jjIEE64D7A//+//7//qOMgQUogPsD//7//v/+o4yBBWSA+wP//v/+//6jjIEFoID7A//+//7//qOMgQXcgPsD//7//v/+o4yBBhiA+wP//v/+//6jjIEGVID7A//+//7//qOMgQaQgPsD//7//v/+o4yBBsyA+wP//v/+//6jjIEHCID7A//+//7//qOMgQdEgPsD//7//v/+o4yBB3+A+wP//v/+//6jjIEHvID7A//+//7//qOMgQf4gPsD//7//v/+o4yBCDOA+wP//v/+//6jjIEIcID7A//+//7//qOMgQisgPsD//7//v/+o4yBCOiA+wP//v/+//6jjIEJI4D7A//+//7//qOMgQlfgPsD//7//v/+o4yBCZuA+wP//v/+//6jjIEJ14D7A//+//7//qOMgQoTgPsD//7//v/+o4yBClCA+wP//v/+//6jjIEKjID7A//+//7//qOMgQrIgPsD//7//v/+o4yBCwSA+wP//v/+//6jjIELQID7A//+//7//qOMgQt8gPsD//7//v/+o4yBC7eA+wP//v/+//6jjIEL84D7A//+//7//qOMgQwwgPsD//7//v/+o4yBDGyA+wP//v/+//6jjIEMp4D7A//+//7//qOMgQzjgPsD//7//v/+o4yBDR+A+wP//v/+//6jjIENW4D7A//+//7//qOMgQ2YgPsD//7//v/+o4yBDdOA+wP//v/+//6jjIEOEID7A//+//7//qOMgQ5MgPsD//7//v/+o4yBDoiA+wP//v/+//6jjIEOxID7A//+//7//qOMgQ8AgPsD//7//v/+o4yBDzyA+wP//v/+//6jjIEPeID7A//+//7//qOMgQ+zgPsD//7//v/+o4yBD/CA+wP//v/+//6jjIEQK4D7A//+//7//qOMgRBogPsD//7//v/+o4yBEKOA+wP//v/+//6jjIEQ4ID7A//+//7//qOMgREcgPsD//7//v/+o4yBEViA+wP//v/+//6jjIERlID7A//+//7//qOMgRHQgPsD//7//v/+o4yBEgyA+wP//v/+//6jjIESSID7A//+//7//qOMgRKEgPsD//7//v/+o4yBEsCA+wP//v/+//6jjIES/ID7A//+//7//qOMgRM3gPsD//7//v/+o4yBE3SA+wP//v/+//6jjIETsID7A//+//7//qOMgRPrgPsD//7//v/+o4yBFCiA+wP//v/+//6jjIEUZID7A//+//7//qOMgRSfgPsD//7//v/+o4yBFNuA+wP//v/+//6jjIEVF4D7A//+//7//qOMgRVUgPsD//7//v/+o4yBFZCA+wP//v/+//6jjIEVzID7A//+//7//qOMgRYHgPsD//7//v/+","1"
"","","","","","image-button-response","17","603572","0.0-17.0","273F071D9FAB4E18A8A523CB0712AD5D","273F071D9FAB4E18A8A523CB0712AD5D","4c25b94f-e4d9-4cf4-8d69-48dd388ca05b","8bf6df8b-65cd-48e9-a0be-8f7d173ccf15","{""participantId"":""273F071D9FAB4E18A8A523CB0712AD5D"",""assignmentId"":""4c25b94f-e4d9-4cf4-8d69-48dd388ca05b"",""projectId"":""8bf6df8b-65cd-48e9-a0be-8f7d173ccf15""}","https://test12345.live/?participantId=273F071D9FAB4E18A8A523CB0712AD5D&assignmentId=4c25b94f-e4d9-4cf4-8d69-48dd388ca05b&projectId=8bf6df8b-65cd-48e9-a0be-8f7d173ccf15","[{""stimulus"":""images/schemes/flight_scheme/flight_0.png"",""stimulus_width"":""600"",""stimulus_height"":""600"",""choices"":[],""prompt"":"""",""trial_duration"":""5000""},{""stimulus"":""images/schemes/restaurant_scheme/restaurant_0.png"",""stimulus_width"":""600"",""stimulus_height"":""600"",""choices"":[],""prompt"":"""",""trial_duration"":""5000""},{""stimulus"":""images/celebs/timeline_a/0_celebs_a.png"",""choices"":[],""prompt"":"""",""stimulus_width"":""600"",""stimulus_height"":""600"",""trial_duration"":""5000""},{""stimulus"":""images/celebs/timeline_b/0_celebs_b.png"",""stimulus_width"":""600"",""stimulus_height"":""600"",""choices"":[],""prompt"":"""",""trial_duration"":""5000""},{""stimulus"":""images/stories/paris_story/paris_story_0.png"",""stimulus_width"":""600"",""stimulus_height"":""600"",""choices"":[],""prompt"":"""",""trial_duration"":""5000""},{""stimulus"":""images/stories/market_story/market_story_0.png"",""stimulus_width"":""600"",""stimulus_height"":""600"",""choices"":[],""prompt"":"""",""trial_duration"":""5000""}]","273F071D9FAB4E18A8A523CB0712AD5D-2024-07-22-22-45-22","","null","","images/celebs/timeline_b/0_celebs_b.png","null",""
"","","","","","html-audio-response","18","620073","0.0-18.0","273F071D9FAB4E18A8A523CB0712AD5D","273F071D9FAB4E18A8A523CB0712AD5D","4c25b94f-e4d9-4cf4-8d69-48dd388ca05b","8bf6df8b-65cd-48e9-a0be-8f7d173ccf15","{""participantId"":""273F071D9FAB4E18A8A523CB0712AD5D"",""assignmentId"":""4c25b94f-e4d9-4cf4-8d69-48dd388ca05b"",""projectId"":""8bf6df8b-65cd-48e9-a0be-8f7d173ccf15""}","https://test12345.live/?participantId=273F071D9FAB4E18A8A523CB0712AD5D&assignmentId=4c25b94f-e4d9-4cf4-8d69-48dd388ca05b&projectId=8bf6df8b-65cd-48e9-a0be-8f7d173ccf15","[{""stimulus"":""images/schemes/flight_scheme/flight_0.png"",""stimulus_width"":""600"",""stimulus_height"":""600"",""choices"":[],""prompt"":"""",""trial_duration"":""5000""},{""stimulus"":""images/schemes/restaurant_scheme/restaurant_0.png"",""stimulus_width"":""600"",""stimulus_height"":""600"",""choices"":[],""prompt"":"""",""trial_duration"":""5000""},{""stimulus"":""images/celebs/timeline_a/0_celebs_a.png"",""choices"":[],""prompt"":"""",""stimulus_width"":""600"",""stimulus_height"":""600"",""trial_duration"":""5000""},{""stimulus"":""images/celebs/timeline_b/0_celebs_b.png"",""stimulus_width"":""600"",""stimulus_height"":""600"",""choices"":[],""prompt"":"""",""trial_duration"":""5000""},{""stimulus"":""images/stories/paris_story/paris_story_0.png"",""stimulus_width"":""600"",""stimulus_height"":""600"",""choices"":[],""prompt"":"""",""trial_duration"":""5000""},{""stimulus"":""images/stories/market_story/market_story_0.png"",""stimulus_width"":""600"",""stimulus_height"":""600"",""choices"":[],""prompt"":"""",""trial_duration"":""5000""}]","273F071D9FAB4E18A8A523CB0712AD5D-2024-07-22-22-45-22","","15117","","<span style=""color: red; font-size: 24px""> NOW RECORDING</span>
        <p>Please say out loud all the images you saw in part 1 of the experiment, as many as you can remember. The images can be said in any order.</p>","GkXfo59ChoEBQveBAULygQRC84EIQoKEd2VibUKHgQRChYECGFOAZwH/////////FUmpZpkq17GDD0JATYCGQ2hyb21lV0GGQ2hyb21lFlSua7+uvdeBAXPFhylasjMslQWDgQKGhkFfT1BVU2Oik09wdXNIZWFkAQEAAIC7AAAAAADhjbWERzuAAJ+BAWJkgSAfQ7Z1Af/////////ngQCjjIEAAID7A//+//7//qOMgQA7gPsD//7//v/+o4yBAHeA+wP//v/+//6jjIEAtID7A//+//7//qOMgQDvgPsD//7//v/+o4yBASyA+wP//v/+//6jjIEBaID7A//+//7//qOMgQGjgPsD//7//v/+o4yBAeCA+wP//v/+//6jjIECG4D7A//+//7//qOMgQJXgPsD//7//v/+o4yBApSA+wP//v/+//6jjIECz4D7A//+//7//qOMgQMMgPsD//7//v/+o4yBA0iA+wP//v/+//6jjIEDg4D7A//+//7//qOMgQO/gPsD//7//v/+o4yBA/uA+wP//v/+//6jjIEEN4D7A//+//7//qOMgQRzgPsD//7//v/+o4yBBLCA+wP//v/+//6jjIEE7ID7A//+//7//qOMgQUngPsD//7//v/+o4yBBWSA+wP//v/+//6jjIEFoID7A//+//7//qOMgQXcgPsD//7//v/+o4yBBheA+wP//v/+//6jjIEGVID7A//+//7//qOMgQaPgPsD//7//v/+o4yBBsyA+wP//v/+//6jjIEHCID7A//+//7//qOMgQdDgPsD//7//v/+o4yBB4CA+wP//v/+//6jjIEHu4D7A//+//7//qOMgQf4gPsD//7//v/+o4yBCDSA+wP//v/+//6jjIEIb4D7A//+//7//qOMgQirgPsD//7//v/+o4yBCOiA+wP//v/+//6jjIEJJID7A//+//7//qOMgQlfgPsD//7//v/+o4yBCZyA+wP//v/+//6jjIEJ2ID7A//+//7//qOMgQoTgPsD//7//v/+o4yBCk+A+wP//v/+//6jjIEKi4D7A//+//7//qOMgQrIgPsD//7//v/+o4yBCwSA+wP//v/+//6jjIELP4D7A//+//7//qOMgQt7gPsD//7//v/+o4yBC7eA+wP//v/+//6jjIEL84D7A//+//7//qOMgQwvgPsD//7//v/+o4yBDGyA+wP//v/+//6jjIEMp4D7A//+//7//qOMgQzkgPsD//7//v/+o4yBDSCA+wP//v/+//6jjIENW4D7A//+//7//qOMgQ2YgPsD//7//v/+o4yBDdOA+wP//v/+//6jjIEOEID7A//+//7//qOMgQ5LgPsD//7//v/+o4yBDoiA+wP//v/+//6jjIEOxID7A//+//7//qOMgQ7/gPsD//7//v/+o4yBDzyA+wP//v/+//6jjIEPd4D7A//+//7//qOMgQ+zgPsD//7//v/+o4yBD++A+wP//v/+//6jjIEQLID7A//+//7//qOMgRBngPsD//7//v/+o4yBEKOA+wP//v/+//6jjIEQ34D7A//+//7//qOMgREbgPsD//7//v/+o4yBEViA+wP//v/+//6jjIERk4D7A//+//7//qOMgRHPgPsD//7//v/+o4yBEgyA+wP//v/+//6jjIESR4D7A//+//7//qOMgRKDgPsD//7//v/+o4yBEsCA+wP//v/+//6jjIES+4D7A//+//7//qOMgRM3gPsD//7//v/+o4yBE3OA+wP//v/+//6jjIETr4D7A//+//7//qOMgRPrgPsD//7//v/+o4yBFCeA+wP//v/+//6jjIEUZID7A//+//7//qOMgRSggPsD//7//v/+o4yBFNyA+wP//v/+//6jjIEVF4D7A//+//7//qOMgRVTgPsD//7//v/+o4yBFZCA+wP//v/+//6jjIEVzID7A//+//7//qOMgRYHgPsD//7//v/+o4yBFkOA+wP//v/+//6jjIEWgID7A//+//7//qOMgRa7gPsD//7//v/+o4yBFveA+wP//v/+//6jjIEXNID7A//+//7//qOMgRdvgPsD//7//v/+o4yBF6yA+wP//v/+//6jjIEX54D7A//+//7//qOMgRgjgPsD//7//v/+o4yBGGCA+wP//v/+//6jjIEYm4D7A//+//7//qOMgRjYgPsD//7//v/+o4yBGRSA+wP//v/+//6jjIEZUID7A//+//7//qOMgRmMgPsD//7//v/+o4yBGceA+wP//v/+//6jjIEaBID7A//+//7//qOMgRo/gPsD//7//v/+o4yBGnuA+wP//v/+//6jjIEat4D7A//+//7//qOMgRrzgPsD//7//v/+o4yBGy+A+wP//v/+//6jjIEbbID7A//+//7//qOMgRungPsD//7//v/+o4yBG+SA+wP//v/+//6jjIEcH4D7A//+//7//qOMgRxcgPsD//7//v/+o4yBHJeA+wP//v/+//6jjIEc04D7A//+//7//qOMgR0QgPsD//7//v/+o4yBHUuA+wP//v/+//6jjIEdh4D7A//+//7//qOMgR3EgPsD//7//v/+o4yBHgCA+wP//v/+//6jjIEeO4D7A//+//7//qOMgR53gPsD//7//v/+o4yBHrOA+wP//v/+//6jjIEe74D7A//+//7//qOMgR8rgPsD//7//v/+o4yBH2eA+wP//v/+//6jjIEfo4D7A//+//7//qOMgR/fgPsD//7//v/+o4yBIBuA+wP//v/+//6jjIEgV4D7A//+//7//qOMgSCTgPsD//7//v/+o4yBIM+A+wP//v/+//6jjIEhC4D7A//+//7//qOMgSFHgPsD//7//v/+o4yBIYOA+wP//v/+//6jjIEhv4D7A//+//7//qOMgSH7gPsD//7//v/+o4yBIjeA+wP//v/+//6jjIEic4D7A//+//7//qOMgSKwgPsD//7//v/+o4yBIuyA+wP//v/+//6jjIEjJ4D7A//+//7//qOMgSNjgPsD//7//v/+o4yBI5+A+wP//v/+//6jjIEj24D7A//+//7//qOMgSQXgPsD//7//v/+o4yBJFOA+wP//v/+//6jjIEkj4D7A//+//7//qOMgSTLgPsD//7//v/+o4yBJQeA+wP//v/+//6jjIElQ4D7A//+//7//qOMgSWAgPsD//7//v/+o4yBJbuA+wP//v/+//6jjIEl94D7A//+//7//qOMgSYzgPsD//7//v/+o4yBJnCA+wP//v/+//6jjIEmrID7A//+//7//qOMgSbogPsD//7//v/+o4yBJyOA+wP//v/+//6jjIEnX4D7A//+//7//qOMgSebgPsD//7//v/+o4yBJ9eA+wP//v/+//6jjIEoE4D7A//+//7//qOMgShPgPsD//7//v/+o4yBKIuA+wP//v/+//6jjIEox4D7A//+//7//qOMgSkDgPsD//7//v/+o4yBKUCA+wP//v/+//6jjIEpe4D7A//+//7//qOMgSm3gPsD//7//v/+o4yBKfOA+wP//v/+//6jjIEqL4D7A//+//7//qOMgSprgPsD//7//v/+o4yBKqeA+wP//v/+//6jjIEq44D7A//+//7//qOMgSsggPsD//7//v/+o4yBK1uA+wP//v/+//6jjIErl4D7A//+//7//qOMgSvUgPsD//7//v/+o4yBLA+A+wP//v/+//6jjIEsS4D7A//+//7//qOMgSyIgPsD//7//v/+o4yBLMSA+wP//v/+//6jjIEs/4D7A//+//7//qOMgS07gPsD//7//v/+o4yBLXeA+wP//v/+//6jjIEts4D7A//+//7//qOMgS3vgPsD//7//v/+o4yBLiyA+wP//v/+//6jjIEuaID7A//+//7//qOMgS6kgPsD//7//v/+o4yBLt+A+wP//v/+//6jjIEvG4D7A//+//7//qOMgS9XgPsD//7//v/+o4yBL5OA+wP//v/+//6jjIEvz4D7A//+//7//qOMgTALgPsD//7//v/+o4yBMEeA+wP//v/+//6jjIEwg4D7A//+//7//qOMgTC/gPsD//7//v/+o4yBMPuA+wP//v/+//6jjIExN4D7A//+//7//qOMgTF0gPsD//7//v/+o4yBMa+A+wP//v/+//6jjIEx64D7A//+//7//qOMgTIngPsD//7//v/+o4yBMmOA+wP//v/+//6jjIEyn4D7A//+//7//qOMgTLbgPsD//7//v/+o4yBMxeA+wP//v/+//6jjIEzU4D7A//+//7//qOMgTOPgPsD//7//v/+o4yBM8uA+wP//v/+//6jjIE0B4D7A//+//7//qOMgTREgPsD//7//v/+o4yBNH+A+wP//v/+//6jjIE0u4D7A//+//7//qOMgTT3gPsD//7//v/+o4yBNTSA+wP//v/+//6jjIE1b4D7A//+//7//qOMgTWrgPsD//7//v/+o4yBNeeA+wP//v/+//6jjIE2I4D7A//+//7//qOMgTZfgPsD//7//v/+o4yBNpuA+wP//v/+//6jjIE214D7A//+//7//qOMgTcTgPsD//7//v/+o4yBN0+A+wP//v/+//6jjIE3i4D7A//+//7//qOMgTfHgPsD//7//v/+o4yBOAOA+wP//v/+//6jjIE4P4D7A//+//7//qOMgTh7gPsD//7//v/+o4yBOLiA+wP//v/+//6jjIE49ID7A//+//7//qOMgTkvgPsD//7//v/+o4yBOWuA+wP//v/+//6jjIE5p4D7A//+//7//qOMgTnkgPsD//7//v/+o4yBOh+A+wP//v/+//6jjIE6W4D7A//+//7//qOMgTqXgPsD//7//v/+o4yBOtOA+wP//v/+//4=","1"
"","","","","","image-button-response","19","625091","0.0-19.0","273F071D9FAB4E18A8A523CB0712AD5D","273F071D9FAB4E18A8A523CB0712AD5D","4c25b94f-e4d9-4cf4-8d69-48dd388ca05b","8bf6df8b-65cd-48e9-a0be-8f7d173ccf15","{""participantId"":""273F071D9FAB4E18A8A523CB0712AD5D"",""assignmentId"":""4c25b94f-e4d9-4cf4-8d69-48dd388ca05b"",""projectId"":""8bf6df8b-65cd-48e9-a0be-8f7d173ccf15""}","https://test12345.live/?participantId=273F071D9FAB4E18A8A523CB0712AD5D&assignmentId=4c25b94f-e4d9-4cf4-8d69-48dd388ca05b&projectId=8bf6df8b-65cd-48e9-a0be-8f7d173ccf15","[{""stimulus"":""images/schemes/flight_scheme/flight_0.png"",""stimulus_width"":""600"",""stimulus_height"":""600"",""choices"":[],""prompt"":"""",""trial_duration"":""5000""},{""stimulus"":""images/schemes/restaurant_scheme/restaurant_0.png"",""stimulus_width"":""600"",""stimulus_height"":""600"",""choices"":[],""prompt"":"""",""trial_duration"":""5000""},{""stimulus"":""images/celebs/timeline_a/0_celebs_a.png"",""choices"":[],""prompt"":"""",""stimulus_width"":""600"",""stimulus_height"":""600"",""trial_duration"":""5000""},{""stimulus"":""images/celebs/timeline_b/0_celebs_b.png"",""stimulus_width"":""600"",""stimulus_height"":""600"",""choices"":[],""prompt"":"""",""trial_duration"":""5000""},{""stimulus"":""images/stories/paris_story/paris_story_0.png"",""stimulus_width"":""600"",""stimulus_height"":""600"",""choices"":[],""prompt"":"""",""trial_duration"":""5000""},{""stimulus"":""images/stories/market_story/market_story_0.png"",""stimulus_width"":""600"",""stimulus_height"":""600"",""choices"":[],""prompt"":"""",""trial_duration"":""5000""}]","273F071D9FAB4E18A8A523CB0712AD5D-2024-07-22-22-45-22","","null","","images/stories/paris_story/paris_story_0.png","null",""
"","","","","","html-audio-response","20","643449","0.0-20.0","273F071D9FAB4E18A8A523CB0712AD5D","273F071D9FAB4E18A8A523CB0712AD5D","4c25b94f-e4d9-4cf4-8d69-48dd388ca05b","8bf6df8b-65cd-48e9-a0be-8f7d173ccf15","{""participantId"":""273F071D9FAB4E18A8A523CB0712AD5D"",""assignmentId"":""4c25b94f-e4d9-4cf4-8d69-48dd388ca05b"",""projectId"":""8bf6df8b-65cd-48e9-a0be-8f7d173ccf15""}","https://test12345.live/?participantId=273F071D9FAB4E18A8A523CB0712AD5D&assignmentId=4c25b94f-e4d9-4cf4-8d69-48dd388ca05b&projectId=8bf6df8b-65cd-48e9-a0be-8f7d173ccf15","[{""stimulus"":""images/schemes/flight_scheme/flight_0.png"",""stimulus_width"":""600"",""stimulus_height"":""600"",""choices"":[],""prompt"":"""",""trial_duration"":""5000""},{""stimulus"":""images/schemes/restaurant_scheme/restaurant_0.png"",""stimulus_width"":""600"",""stimulus_height"":""600"",""choices"":[],""prompt"":"""",""trial_duration"":""5000""},{""stimulus"":""images/celebs/timeline_a/0_celebs_a.png"",""choices"":[],""prompt"":"""",""stimulus_width"":""600"",""stimulus_height"":""600"",""trial_duration"":""5000""},{""stimulus"":""images/celebs/timeline_b/0_celebs_b.png"",""stimulus_width"":""600"",""stimulus_height"":""600"",""choices"":[],""prompt"":"""",""trial_duration"":""5000""},{""stimulus"":""images/stories/paris_story/paris_story_0.png"",""stimulus_width"":""600"",""stimulus_height"":""600"",""choices"":[],""prompt"":"""",""trial_duration"":""5000""},{""stimulus"":""images/stories/market_story/market_story_0.png"",""stimulus_width"":""600"",""stimulus_height"":""600"",""choices"":[],""prompt"":"""",""trial_duration"":""5000""}]","273F071D9FAB4E18A8A523CB0712AD5D-2024-07-22-22-45-22","","14207","","<span style=""color: red; font-size: 24px""> NOW RECORDING</span>
        <p>Please say out loud all the images you saw in part 1 of the experiment, as many as you can remember. The images can be said in any order.</p>","GkXfo59ChoEBQveBAULygQRC84EIQoKEd2VibUKHgQRChYECGFOAZwH/////////FUmpZpkq17GDD0JATYCGQ2hyb21lV0GGQ2hyb21lFlSua7+uvdeBAXPFhy0VpXKTrb2DgQKGhkFfT1BVU2Oik09wdXNIZWFkAQEAAIC7AAAAAADhjbWERzuAAJ+BAWJkgSAfQ7Z1Af/////////ngQCjjIEAAID7A//+//7//qOMgQA7gPsD//7//v/+o4yBAHiA+wP//v/+//6jjIEAtID7A//+//7//qOMgQDvgPsD//7//v/+o4yBASyA+wP//v/+//6jjIEBZ4D7A//+//7//qOMgQGkgPsD//7//v/+o4yBAeCA+wP//v/+//6jjIECHID7A//+//7//qOMgQJYgPsD//7//v/+o4yBApOA+wP//v/+//6jjIECz4D7A//+//7//qOMgQMMgPsD//7//v/+o4yBA0iA+wP//v/+//6jjIEDhID7A//+//7//qOMgQO/gPsD//7//v/+o4yBA/yA+wP//v/+//6jjIEEN4D7A//+//7//qOMgQR0gPsD//7//v/+o4yBBLCA+wP//v/+//6jjIEE7ID7A//+//7//qOMgQUogPsD//7//v/+o4yBBWOA+wP//v/+//6jjIEFoID7A//+//7//qOMgQXcgPsD//7//v/+o4yBBheA+wP//v/+//6jjIEGU4D7A//+//7//qOMgQaQgPsD//7//v/+o4yBBsyA+wP//v/+//6jjIEHCID7A//+//7//qOMgQdEgPsD//7//v/+o4yBB4CA+wP//v/+//6jjIEHvID7A//+//7//qOMgQf3gPsD//7//v/+o4yBCDSA+wP//v/+//6jjIEIcID7A//+//7//qOMgQisgPsD//7//v/+o4yBCOeA+wP//v/+//6jjIEJJID7A//+//7//qOMgQlggPsD//7//v/+o4yBCZuA+wP//v/+//6jjIEJ2ID7A//+//7//qOMgQoUgPsD//7//v/+o4yBClCA+wP//v/+//6jjIEKi4D7A//+//7//qOMgQrHgPsD//7//v/+o4yBCwSA+wP//v/+//6jjIELP4D7A//+//7//qOMgQt7gPsD//7//v/+o4yBC7iA+wP//v/+//6jjIEL9ID7A//+//7//qOMgQwwgPsD//7//v/+o4yBDGuA+wP//v/+//6jjIEMqID7A//+//7//qOMgQzkgPsD//7//v/+o4yBDSCA+wP//v/+//6jjIENW4D7A//+//7//qOMgQ2YgPsD//7//v/+o4yBDdSA+wP//v/+//6jjIEOEID7A//+//7//qOMgQ5MgPsD//7//v/+o4yBDoiA+wP//v/+//6jjIEOw4D7A//+//7//qOMgQ8AgPsD//7//v/+o4yBDzyA+wP//v/+//6jjIEPeID7A//+//7//qOMgQ+0gPsD//7//v/+o4yBD/CA+wP//v/+//6jjIEQLID7A//+//7//qOMgRBogPsD//7//v/+o4yBEKSA+wP//v/+//6jjIEQ4ID7A//+//7//qOMgREbgPsD//7//v/+o4yBEViA+wP//v/+//6jjIERk4D7A//+//7//qOMgRHQgPsD//7//v/+o4yBEguA+wP//v/+//6jjIESSID7A//+//7//qOMgRKEgPsD//7//v/+o4yBEr+A+wP//v/+//6jjIES/ID7A//+//7//qOMgRM4gPsD//7//v/+o4yBE3SA+wP//v/+//6jjIETsID7A//+//7//qOMgRPsgPsD//7//v/+o4yBFCiA+wP//v/+//6jjIEUZID7A//+//7//qOMgRSfgPsD//7//v/+o4yBFNyA+wP//v/+//6jjIEVGID7A//+//7//qOMgRVTgPsD//7//v/+o4yBFZCA+wP//v/+//6jjIEVzID7A//+//7//qOMgRYIgPsD//7//v/+o4yBFkSA+wP//v/+//6jjIEWgID7A//+//7//qOMgRa7gPsD//7//v/+o4yBFviA+wP//v/+//6jjIEXM4D7A//+//7//qOMgRdvgPsD//7//v/+o4yBF6uA+wP//v/+//6jjIEX6ID7A//+//7//qOMgRgjgPsD//7//v/+o4yBGGCA+wP//v/+//6jjIEYm4D7A//+//7//qOMgRjYgPsD//7//v/+o4yBGRSA+wP//v/+//6jjIEZT4D7A//+//7//qOMgRmMgPsD//7//v/+o4yBGciA+wP//v/+//6jjIEaBID7A//+//7//qOMgRpAgPsD//7//v/+o4yBGnyA+wP//v/+//6jjIEauID7A//+//7//qOMgRrzgPsD//7//v/+o4yBGy+A+wP//v/+//6jjIEba4D7A//+//7//qOMgRungPsD//7//v/+o4yBG+SA+wP//v/+//6jjIEcIID7A//+//7//qOMgRxbgPsD//7//v/+o4yBHJeA+wP//v/+//6jjIEc1ID7A//+//7//qOMgR0QgPsD//7//v/+o4yBHUyA+wP//v/+//6jjIEdiID7A//+//7//qOMgR3DgPsD//7//v/+o4yBHf+A+wP//v/+//6jjIEePID7A//+//7//qOMgR54gPsD//7//v/+o4yBHrSA+wP//v/+//6jjIEe8ID7A//+//7//qOMgR8sgPsD//7//v/+o4yBH2eA+wP//v/+//6jjIEfpID7A//+//7//qOMgR/fgPsD//7//v/+o4yBIByA+wP//v/+//6jjIEgWID7A//+//7//qOMgSCTgPsD//7//v/+o4yBIM+A+wP//v/+//6jjIEhC4D7A//+//7//qOMgSFIgPsD//7//v/+o4yBIYOA+wP//v/+//6jjIEhwID7A//+//7//qOMgSH7gPsD//7//v/+o4yBIjiA+wP//v/+//6jjIEic4D7A//+//7//qOMgSKwgPsD//7//v/+o4yBIuuA+wP//v/+//6jjIEjKID7A//+//7//qOMgSNjgPsD//7//v/+o4yBI6CA+wP//v/+//6jjIEj24D7A//+//7//qOMgSQYgPsD//7//v/+o4yBJFSA+wP//v/+//6jjIEkkID7A//+//7//qOMgSTLgPsD//7//v/+o4yBJQeA+wP//v/+//6jjIElRID7A//+//7//qOMgSV/gPsD//7//v/+o4yBJbyA+wP//v/+//6jjIEl94D7A//+//7//qOMgSYzgPsD//7//v/+o4yBJnCA+wP//v/+//6jjIEmq4D7A//+//7//qOMgSbogPsD//7//v/+o4yBJyOA+wP//v/+//6jjIEnX4D7A//+//7//qOMgSecgPsD//7//v/+o4yBJ9eA+wP//v/+//6jjIEoFID7A//+//7//qOMgShQgPsD//7//v/+o4yBKIyA+wP//v/+//6jjIEox4D7A//+//7//qOMgSkEgPsD//7//v/+o4yBKUCA+wP//v/+//6jjIEpfID7A//+//7//qOMgSm4gPsD//7//v/+o4yBKfSA+wP//v/+//6jjIEqL4D7A//+//7//qOMgSpsgPsD//7//v/+o4yBKqiA+wP//v/+//6jjIEq5ID7A//+//7//qOMgSsfgPsD//7//v/+o4yBK1uA+wP//v/+//6jjIErmID7A//+//7//qOMgSvUgPsD//7//v/+o4yBLBCA+wP//v/+//6jjIEsTID7A//+//7//qOMgSyHgPsD//7//v/+o4yBLMSA+wP//v/+//6jjIEtAID7A//+//7//qOMgS08gPsD//7//v/+o4yBLXeA+wP//v/+//6jjIEts4D7A//+//7//qOMgS3vgPsD//7//v/+o4yBLiyA+wP//v/+//6jjIEuaID7A//+//7//qOMgS6jgPsD//7//v/+o4yBLuCA+wP//v/+//6jjIEvG4D7A//+//7//qOMgS9XgPsD//7//v/+o4yBL5OA+wP//v/+//6jjIEvz4D7A//+//7//qOMgTALgPsD//7//v/+o4yBMEeA+wP//v/+//6jjIEwg4D7A//+//7//qOMgTDAgPsD//7//v/+o4yBMPyA+wP//v/+//6jjIExN4D7A//+//7//qOMgTFzgPsD//7//v/+o4yBMa+A+wP//v/+//6jjIEx64D7A//+//7//qOMgTIngPsD//7//v/+o4yBMmOA+wP//v/+//6jjIEyn4D7A//+//7//qOMgTLbgPsD//7//v/+o4yBMxiA+wP//v/+//6jjIEzU4D7A//+//7//qOMgTOPgPsD//7//v/+o4yBM8uA+wP//v/+//6jjIE0CID7A//+//7//qOMgTRDgPsD//7//v/+o4yBNH+A+wP//v/+//6jjIE0u4D7A//+//7//qOMgTT3gPsD//7//v/+o4yBNTOA+wP//v/+//6jjIE1b4D7A//+//7//qOMgTWrgPsD//7//v/+o4yBNeeA+wP//v/+//6jjIE2JID7A//+//7//qOMgTZggPsD//7//v/+o4yBNpuA+wP//v/+//6jjIE214D7A//+//7//qOMgTcTgPsD//7//v/+o4yBN1CA+wP//v/+//4=","4"
"","","","","","survey-text","21","656783","0.0-21.0","273F071D9FAB4E18A8A523CB0712AD5D","273F071D9FAB4E18A8A523CB0712AD5D","4c25b94f-e4d9-4cf4-8d69-48dd388ca05b","8bf6df8b-65cd-48e9-a0be-8f7d173ccf15","{""participantId"":""273F071D9FAB4E18A8A523CB0712AD5D"",""assignmentId"":""4c25b94f-e4d9-4cf4-8d69-48dd388ca05b"",""projectId"":""8bf6df8b-65cd-48e9-a0be-8f7d173ccf15""}","https://test12345.live/?participantId=273F071D9FAB4E18A8A523CB0712AD5D&assignmentId=4c25b94f-e4d9-4cf4-8d69-48dd388ca05b&projectId=8bf6df8b-65cd-48e9-a0be-8f7d173ccf15","[{""stimulus"":""images/schemes/flight_scheme/flight_0.png"",""stimulus_width"":""600"",""stimulus_height"":""600"",""choices"":[],""prompt"":"""",""trial_duration"":""5000""},{""stimulus"":""images/schemes/restaurant_scheme/restaurant_0.png"",""stimulus_width"":""600"",""stimulus_height"":""600"",""choices"":[],""prompt"":"""",""trial_duration"":""5000""},{""stimulus"":""images/celebs/timeline_a/0_celebs_a.png"",""choices"":[],""prompt"":"""",""stimulus_width"":""600"",""stimulus_height"":""600"",""trial_duration"":""5000""},{""stimulus"":""images/celebs/timeline_b/0_celebs_b.png"",""stimulus_width"":""600"",""stimulus_height"":""600"",""choices"":[],""prompt"":"""",""trial_duration"":""5000""},{""stimulus"":""images/stories/paris_story/paris_story_0.png"",""stimulus_width"":""600"",""stimulus_height"":""600"",""choices"":[],""prompt"":"""",""trial_duration"":""5000""},{""stimulus"":""images/stories/market_story/market_story_0.png"",""stimulus_width"":""600"",""stimulus_height"":""600"",""choices"":[],""prompt"":"""",""trial_duration"":""5000""}]","273F071D9FAB4E18A8A523CB0712AD5D-2024-07-22-22-45-22","","13327","","","{""Q0"":""male"",""Q1"":""27""}",""
"","","","","","instructions","22","664032","0.0-22.0","273F071D9FAB4E18A8A523CB0712AD5D","273F071D9FAB4E18A8A523CB0712AD5D","4c25b94f-e4d9-4cf4-8d69-48dd388ca05b","8bf6df8b-65cd-48e9-a0be-8f7d173ccf15","{""participantId"":""273F071D9FAB4E18A8A523CB0712AD5D"",""assignmentId"":""4c25b94f-e4d9-4cf4-8d69-48dd388ca05b"",""projectId"":""8bf6df8b-65cd-48e9-a0be-8f7d173ccf15""}","https://test12345.live/?participantId=273F071D9FAB4E18A8A523CB0712AD5D&assignmentId=4c25b94f-e4d9-4cf4-8d69-48dd388ca05b&projectId=8bf6df8b-65cd-48e9-a0be-8f7d173ccf15","[{""stimulus"":""images/schemes/flight_scheme/flight_0.png"",""stimulus_width"":""600"",""stimulus_height"":""600"",""choices"":[],""prompt"":"""",""trial_duration"":""5000""},{""stimulus"":""images/schemes/restaurant_scheme/restaurant_0.png"",""stimulus_width"":""600"",""stimulus_height"":""600"",""choices"":[],""prompt"":"""",""trial_duration"":""5000""},{""stimulus"":""images/celebs/timeline_a/0_celebs_a.png"",""choices"":[],""prompt"":"""",""stimulus_width"":""600"",""stimulus_height"":""600"",""trial_duration"":""5000""},{""stimulus"":""images/celebs/timeline_b/0_celebs_b.png"",""stimulus_width"":""600"",""stimulus_height"":""600"",""choices"":[],""prompt"":"""",""trial_duration"":""5000""},{""stimulus"":""images/stories/paris_story/paris_story_0.png"",""stimulus_width"":""600"",""stimulus_height"":""600"",""choices"":[],""prompt"":"""",""trial_duration"":""5000""},{""stimulus"":""images/stories/market_story/market_story_0.png"",""stimulus_width"":""600"",""stimulus_height"":""600"",""choices"":[],""prompt"":"""",""trial_duration"":""5000""}]","273F071D9FAB4E18A8A523CB0712AD5D-2024-07-22-22-45-22","[{""page_index"":0,""viewing_time"":7248}]","7248","","","",""
"","","","","","survey-text","23","667295","0.0-23.0","273F071D9FAB4E18A8A523CB0712AD5D","273F071D9FAB4E18A8A523CB0712AD5D","4c25b94f-e4d9-4cf4-8d69-48dd388ca05b","8bf6df8b-65cd-48e9-a0be-8f7d173ccf15","{""participantId"":""273F071D9FAB4E18A8A523CB0712AD5D"",""assignmentId"":""4c25b94f-e4d9-4cf4-8d69-48dd388ca05b"",""projectId"":""8bf6df8b-65cd-48e9-a0be-8f7d173ccf15""}","https://test12345.live/?participantId=273F071D9FAB4E18A8A523CB0712AD5D&assignmentId=4c25b94f-e4d9-4cf4-8d69-48dd388ca05b&projectId=8bf6df8b-65cd-48e9-a0be-8f7d173ccf15","[{""stimulus"":""images/schemes/flight_scheme/flight_0.png"",""stimulus_width"":""600"",""stimulus_height"":""600"",""choices"":[],""prompt"":"""",""trial_duration"":""5000""},{""stimulus"":""images/schemes/restaurant_scheme/restaurant_0.png"",""stimulus_width"":""600"",""stimulus_height"":""600"",""choices"":[],""prompt"":"""",""trial_duration"":""5000""},{""stimulus"":""images/celebs/timeline_a/0_celebs_a.png"",""choices"":[],""prompt"":"""",""stimulus_width"":""600"",""stimulus_height"":""600"",""trial_duration"":""5000""},{""stimulus"":""images/celebs/timeline_b/0_celebs_b.png"",""stimulus_width"":""600"",""stimulus_height"":""600"",""choices"":[],""prompt"":"""",""trial_duration"":""5000""},{""stimulus"":""images/stories/paris_story/paris_story_0.png"",""stimulus_width"":""600"",""stimulus_height"":""600"",""choices"":[],""prompt"":"""",""trial_duration"":""5000""},{""stimulus"":""images/stories/market_story/market_story_0.png"",""stimulus_width"":""600"",""stimulus_height"":""600"",""choices"":[],""prompt"":"""",""trial_duration"":""5000""}]","273F071D9FAB4E18A8A523CB0712AD5D-2024-07-22-22-45-22","","3261","","","{""Q0"":""AJFHBG896""}",""
