success,timeout,failed_images,failed_audio,failed_video,trial_type,trial_index,time_elapsed,internal_node_id,subject,audio_id,rt,device_id,view_history,stimulus,response,estimated_stimulus_onset
TRUE,FALSE,[],[],[],preload,0,2424,0.0-0.0,9h94wm6gshthw1d,9h94wm6gshthw1d-2024-04-14-17-21-25,,,,,,
TRUE,,,,,fullscreen,1,70843,0.0-1.0,9h94wm6gshthw1d,9h94wm6gshthw1d-2024-04-14-17-21-25,67414,,,,,
,,,,,initialize-microphone,2,84766,0.0-2.0,9h94wm6gshthw1d,9h94wm6gshthw1d-2024-04-14-17-21-25,,ea99b709d12f4bfe62f93e0b1a50d8195dca8928ab4335beb880a0d324b65fba,,,,
,,,,,instructions,3,100669,0.0-3.0,9h94wm6gshthw1d,9h94wm6gshthw1d-2024-04-14-17-21-25,15901,,"[{""page_index"":0,""viewing_time"":5743},{""page_index"":1,""viewing_time"":10156}]",,,
,,,,,image-button-response,4,105175,0.0-4.0-0.0,9h94wm6gshthw1d,9h94wm6gshthw1d-2024-04-14-17-21-25,null,,,images/instructions/movie_1.png,null,
,,,,,image-button-response,5,107879,0.0-4.0-1.0,9h94wm6gshthw1d,9h94wm6gshthw1d-2024-04-14-17-21-25,null,,,images/instructions/movie_1.png,null,
,,,,,image-button-response,6,109683,0.0-4.0-2.0,9h94wm6gshthw1d,9h94wm6gshthw1d-2024-04-14-17-21-25,null,,,[],null,
,,,,,image-button-response,7,114189,0.0-4.0-0.1,9h94wm6gshthw1d,9h94wm6gshthw1d-2024-04-14-17-21-25,null,,,images/instructions/movie_2.png,null,
,,,,,image-button-response,8,116100,0.0-4.0-1.1,9h94wm6gshthw1d,9h94wm6gshthw1d-2024-04-14-17-21-25,1909,,,images/instructions/movie_2.png,0,
,,,,,image-button-response,9,117903,0.0-4.0-2.1,9h94wm6gshthw1d,9h94wm6gshthw1d-2024-04-14-17-21-25,null,,,[],null,
,,,,,image-button-response,10,122406,0.0-4.0-0.2,9h94wm6gshthw1d,9h94wm6gshthw1d-2024-04-14-17-21-25,null,,,images/instructions/movie_3.png,null,
,,,,,image-button-response,11,123643,0.0-4.0-1.2,9h94wm6gshthw1d,9h94wm6gshthw1d-2024-04-14-17-21-25,1234,,,images/instructions/movie_3.png,0,
,,,,,image-button-response,12,125447,0.0-4.0-2.2,9h94wm6gshthw1d,9h94wm6gshthw1d-2024-04-14-17-21-25,null,,,[],null,
,,,,,image-button-response,13,129950,0.0-4.0-0.3,9h94wm6gshthw1d,9h94wm6gshthw1d-2024-04-14-17-21-25,null,,,images/instructions/movie_4.png,null,
,,,,,image-button-response,14,130731,0.0-4.0-1.3,9h94wm6gshthw1d,9h94wm6gshthw1d-2024-04-14-17-21-25,779,,,images/instructions/movie_4.png,0,
,,,,,image-button-response,15,132534,0.0-4.0-2.3,9h94wm6gshthw1d,9h94wm6gshthw1d-2024-04-14-17-21-25,null,,,[],null,
,,,,,instructions,16,140571,0.0-5.0,9h94wm6gshthw1d,9h94wm6gshthw1d-2024-04-14-17-21-25,8036,,"[{""page_index"":0,""viewing_time"":5403},{""page_index"":1,""viewing_time"":2633}]",,,
,,,,,html-audio-response,17,161619,0.0-6.0,9h94wm6gshthw1d,9h94wm6gshthw1d-2024-04-14-17-21-25,17343,,,"<span style=""color: red; font-size: 24px""> NOW RECORDING</span>
        <p>Please say out loud the list of the actions you saw. The actions can be said in any order.</p>",GkXfo59ChoEBQveBAULygQRC84EIQoKEd2VibUKHgQRChYECGFOAZwH/////////FUmpZpkq17GDD0JATYCGQ2hyb21lV0GGQ2hyb21lFlSua7+uvdeBAXPFh8QAWIkzsDGDgQKGhkFfT1BVU2Oik09wdXNIZWFkAQEAAIC7AAAAAADhjbWERzuAAJ+BAWJkgSAfQ7Z1Af/////////ngQCjRCiBAACA+4P+NP0Lf5Nsfmk//y9Ht3+4Tjx648CX/2HU2uvDa/HvAtdUf2CfhHJtm1J0emn+heyj1NaMKOiha9eyBIwpKHVeK2T/gmgwQMom5A0Zh9yp0iSZSUa5DepueqwX7B5dss9PrILe971bvXoYbuhJPhT/A+9e2ch75U13mp/F8tAU501TU79emu0OE62MKVxlPFyB7ymDGShqSmlkBhZpQiJ8Vd3bEwjug5898FuK+0rX5stfb+HYkgPlGKMZHFG2J2rvD+RWL+4uFLYHktehH5It9asZjfI653lUGgAAAAAAAAAB6qLcj0JU/46K6hPDpFRvpCzw2az7sawapU429O+UM0+nUjsmLyOFkkB8oTfXqdaIfJ34e2Adx5sKfgmiB1Y+4gBKlmEPGjNNiFJHDeeQ4ihzwezv05jMm+vlQjo9WCaCp69nhPdVt+A12P0Zm/3OzwCykMwNd+RJLRo8pOsX8FVPQGLVVPFxn8kdYb8+ZmjYUaUeaIZuRsQESTOKzPxKaXfhk+FboEPwVfR0QzPqJEq2EKIfkIspphWQvoy3X567s9aYMvWNas+89LXT6F8dBPcGalloRxpzWN7/+bElmAr86mdDEe4N3nchXAIy+OfsWqYKAs7eNO1EV5WkKzi9AZEVmYVtO3doVTWVPQx3Ptn/gVv2rEej8NKGbmG3SzdcpgLVH31YVSWTAjnvaYJUX9u3gsY0BHCa7stAxqT19Nu7FzP1WuFtVAuPcIGfUiU7U2faV4aq1PXSeo128/3i53T38zJvGKw0dNDJV5CaNYOjMem6TEhcBx29CmUAobjjmTeWwhcuPzbvriadLUBvxrXQNUznX5bGqRrxIwGoQeX/KM0ptfTopF4i0CVBzc450ukLZq6urp95HPb6+CwVSs+RQcd8FyC49cjntYU8A9+Psi696n+cXbZ0rbGzYU8kbpJPgh8v7FntijDRILVfTb0WSga1boMRPnN9spwurVInycipQXrxqqZm3dJB65/R45mV88C0FrytUmfkYkGiE5UMv4y3tvkK7alODVlvYBfEz6owlzKtRhbCm8ThGQ5VXb2OFKufQKYg7hYlfEJUfke+C1ozdRh6PQs/rflLJwp+t2Mt/b8/I/9MvsclriaX6VQ7Y8jgAqRPVYE27nipCO1DbwPCu6JKlZ7epjOSiS5w709PMFFoulTROHBWQtSAJIFjh6xuRm/T0sElPdBbmY6hcpk8XdrdwdpZ8n6ZfjToVNRssWsMup5JPLWhnJ0/nGPwXmBXobqCFEWVT56HwUTaqGvaJGv/BReSrDiNvrFl76ZBay1FdVabwEefutRxrgfBu6y7IKDwVfSRqLLERSAGs0Recj1fAuh7OP+YBJUtrXdwQpHTZjghUsH/ODg+cmm2fNI+QiN8DElP6QNOraNDgYEAO4D7g/8K/QtEDpuKJPHW21XWKZ2E0p1aMwXMdsfHFMd9CT9FrInAo9YM1DyJucW4loRjhWx6/1RRpS06/cS0RQBd/OhxXHLrnz94aSbDJdXSU+GpRHBQmnFG0yQt1LRlcvAB0sZkBVvKVPT4L2s/nJz9mcG0vkvQoaoI52KmFNo4OFycWXYXVTg/mJIX7Ie4ClT27iYhQNQywSLkPj56ozozsAfqN+F4WBT2wF8STDwbTeamUPEeJ89uCuAyu/W9Hk3md3GnjYAoncMjgwDtZWFLSUu1C2ImyOXuO9d03YAsqPvE33lZpjqSKoqrcfR5TRapDig7smADS2PQ/r6TRbL6P0r2aP7bo+mJKwQbwBPwR0xDls/NsvhUpiXJH/pnDqtlu+rL1XRZUN3r7woaUe1a6itOTH6HceY7K2DQ8LY4SpueWVkg85IsrlNak6za1FezbTKHj2fs4H89/92kQhrwE5fqGVmtwJwR9vb8qelbqRvXwdWuAFt6tZ+PnQ45PzCKSkKhv0Ju7F+arvkLun9f+oUix50JhdzgWPhzkZniabYNyGOxSBF4hzcsPTSxPP5VdXL51ZmnR1sS+8I/PUQ1ZOPfKA+ReBAxnhCKaXUDTAcPZshFPzYcOwcZkE2hybClqOYxX4btoa72T6NymiUszN4CV1HsnhDbaB6WO70A0Von2m9EUdPydApjJHx1jyIdReVXLOIyNf0jGNhYXb4CnMg8ukGsWcWrehayGe2YKHAQVw5RBK9Au4HqJMIzrOjSOkRYfrTmT5rAt2KbgZPkBqKOJELXRB2AbB41XCGCdg631Iqj1n2FOKFrol1m7m68GGfkFBZvdh755Gl3DQFYlT4VuY6VDMzujCZ+voZzPA5sgYCWxJlR3/969Nc5fDI/NzIMQ+hcFS0+3zI7CA9d2n8RtNMGqu9g+V64Rp3dTXNucTICt9d61b1qKKXctHda0coOYieAvJB3xiDihBBn2eMfhfvJA6cQPGm9nb2NOc9MNyoNApqMa9yl8YrfNFylywXYOsVN90b+X1Xb+rI4cXlS1SBzvMsoOP7o+M0AcfxGiBNuSEv/lqqVaUOVeWPahUJqQPGFhQ1R+Azr3y/tK7ApwUPIgrNEDQOal96UF0271Sf2Eu8rgCeFpMzeRzgpZJo692dJVHCTfaBPY6QRLzgZ/twbIFDFAnfaYaNDtYEAd4D7g/8L/BFZo0i0Zi0biEB7SK9pXb8sDqPCrhZs7KRcVbe2BumiAp9H1i002DhKVmxg2uOnr53BY1erutloU/JBVQKLyQr8tYOBl/RX8QjpQUBS9p02mGaDgrOg9QZjz93f2+TWbmQpdlIqFlNyIqVaWi696rqpIFiAsPEB59guMDb8/fDABroPaelS4ZPnS0dl174PBk9ww17HDt87ZeHfK6/QQ/PL5hAsuHLkNyXRAydgxujQGvdA4dn/Zra43kQkx3s3khouXPElVwnd7BGKYB5xXBuKPdMWOGQliH10eWAEhIqCwfUxg/3u6THtLfZin+TaE8hlLclNFC76ecewrSE+1nBrZzIKvAWpYjyrnUsDSge/aDJsdHq2DSDfTyVsVkw51d8ZyMXHT6RW6REd21PXFs7aPhe230gmfKl13uxYMRt1HPzYQswb89JUm6DIFj960I3dECBSgdXl1uU+3EZVyu8Gpwje/9nqVEWqS6K+Fvj2wVr8wY3OXmGTyDjA2SJHVjmlCwXtkTlMnljTnaHdNjZ8h3nCIjumuHYLOci1rJVwPeTIxI+RloK++3myjW/Lv1+l84Vo+ykN3Q9my9HLLwKbGFBdxXEqP3YyLOLHaZichXqTAS5jSvkZfvAMUlLrUncflsk++638fAAK4IyAcdFS3W6OxSj2ojElTmdVLXLT22ut/Ci0ce4Vs7reuVEVa6kqn0FnL0QsMNoAkgALtyRTvBZ+L6MfxSIxDp1xWComgQHFfsponu5A7j+LfyysaYm0YI3de4CBi1Ah3qDhmhEaPX+krs+7fY0+qftfCeZVANeqXE/dSaFjVmFuQ+WysQ/AbiaDM/8o8ZVP+PIJu9Ca0lBAB5SuYuwSlcQpg4zdN21Nmo5TDf2O/Vrs3UeTHsmvpT8BNgugETGrmjA9ZkncjuP7/RV6RespaX9By2NPzdzDXp3BYKOlfYW/qpifhfLCo0IadF9NUYs9/0FQ31CkXiRqT3u1fXeu99psxfjZzz0YSO2Mr+pSye99VUMFLOFT01Ou91mzvH2Taui064RG/F6EFe1F/6X0GkoS98pAq9moSCSfV9SSxC5QMzhrq4RuNyK0cLzZLwIXbYEimcUrCpeQzFy557OcoezahXKplZXn3KZywdrLLF+X2GK/czx8Oigy0kpnLBlZbE2bK/bU7Bvp2COajtweaNd+VZCL/bR6T3J01wIaouisYwge/bpzhZEnQRfOUSwdbYN8lsyb38kJ6Y+XVEISviqjQ8aBALSA+wNSFh+eQfcojHhwda4TA65zjAizHcck5G9Itx6+VitTZ1fNNi7wCtKiomsa+nc4XnKKWxh0/n385sZZdEEqgIuPhXiAAVHsZ7/+azvAgmUQ1WoROVNtIt4mczxrK13eUF4a8sCGslB9Y1sP+PTYJaNynSkQj1oDNd028vZ3gxeUOK/JlqBpDNGjoCFFCdVXh3cxH61tkLJRIlSc7anqyltc1aTdNB/fBv85MmVQq1T4gZNDCxsdSBGw3Siu6KsUvBKCHn2OW+DK+i+K9iBDCiE2vFk26ejR0whko5ZdCZZHuHng86bVBA0ds3OR54XRz3dOK+91tPQ1hmy9tw8X/h6rpcG7c154nCG9sG/iE6yffDjvNi0p5LUOzbMbsZtVhBAgTlONPAetHqJf23NpIQD/IiYk+MaNBgO2H2/i8n2LmlGJvtk9gHT377IpZpRQs6j+cStTaJPbUbhghLIAPLSWQSd9DkuNFmPsH11G4n4VaDDzNROYaNQ4nvIzNtCSBTfjALB76Trsag2c4L0aXM/B/nwziX702V4fxYqPULRAB4bZuZB5JaVJnafR7FUnKvftHNM55iWRnsQVIb+CXnEJsNfjMcI1atcHoyZflszV+NmcoILryfEGRpB+ZucFoxtvK+2OlLDfUJeIIQlibZC84+XFc76bYl9wNhwk8hJa9BMxzbCPoNhSVqoUsSTIJYpCS/xWY7x3AARpC3LIEMb7gE7UKVUjvI7kBiFwNYGG41Pr3qd1nlkpo7Tr0pHZs6M8xkwkNY6X2w3mxFTf9uwefikY6qQ0riYlopj9Vj6WnGpX2cZQ0l1HziGSM88Rv2RrqUKpaCV+hPD7xEHTrfCeWW4oKzLsBXvsSTRdELWlA5kZU9u4hjSSAk5n31/R0Qyn52s2Ssm3fUcge5PfFBdVvkQhdyA5HI8ZjQWFlZ2+hAVOklEGxeaLWMiIDnfb+vczDG06BGlTobDXCh14KQVW8wCJlZ3TyvCEK9V1Pe5b1OLqzgpb69oBDzv8oChMqx9csV+bv1sMGXkLzcKesXUdDTYbVzPtmEpA78RrjgCuuXLgDTvbKgJBZNxJ+qyWZbYnGl+qcaDDb4Cng4+dBs5sPz+PM0rxcrEhlPCP+ZV0aqwKQpsb7bMYkONDPC64aSVy6bUWezP0EbL6ZWFbWXHAXcLM+72kIKw50WgoqdK7shl1k8Mj0cVqGlQMmyzzY/jJPJhUl35SstnpjyoK6qFOGr9wBARDKMFVn8rCeduol69Ldavg/CkFgZoDkMIf+A6jQ8aBAPCA+wNaKdukmu3Li1R0d8zx2qe1mPxjLyAOELybkQZ/MWuICWT8LZz656tz36qZ4toLwQTXfz4FU+WLatNl8Rnk2UDDphLHjzubVfLrgEFc6dOmBPxf/gcHYZmGiFuzO/Z/RsOl4QAtTCXPLHzM6Ft8/0y8KLkNKQViNaS3TtKezg3dkXqvUZ4YSgpKh+L/yk9Ui2UMW6dXiw6WFM+SrFj2bmSScDRxRUG7p3mdEL0/sTZOyuyGJy2XFMndNHefopBPAad74TIz03hW543S93UTdb/q+uNIiqlZe2pcDin5Z0jVTJQ8M6UcxnZkW1WdZJEajFV8GnjOYfbo+FWHhSBTTswaTd9NmH0ia1bZ2+y3hbCrFO7N5kK0+//GhQhnGSntjoKFYRBDBPFI/Ak9jHG5fB7793O4R2kZY/LgvmV3ot7pMERaHgD19CaBSk/p9dAEXImNlKeZaLVtn6LO1d+LCcL++nMNZvVAem4VzFKSlYFfFReduSqQo/Sgm++XiNK0NrH17m5905nWPfOh1h/+ZCkguHCZfFKsvytanMOS8pQCbh+rXwcfPJP5aGml2x3cnI77Y5KdpFfV9ylqgqfdxJtD4eqI9HiStgKs6B3CmnqMyuI+edi9duETIef6CI/fWsp4IR7PmEWU52s8b6FENwY9ocXXdAsvrnAFDI1eq4qfk0ea/IkfmwTAsKE0r3HU5se7aSGvAEFvaYC1SVaiK6wM/eFrIL6AFwTRONmgWTE42a0mUY9vPpfTBR4FcqvyG6xqMeocZNZtEdyHzLAFfySJ3goA0FbeR+qzKNig53q5s96u52a08yx6780kuHbwBA09ZfDo5u4TcoPdKq+7YhX4U7AnVxCg+RYJZiXjoV2XDiggBjOElbn3kCLxQvBqdYUiIj0QRs2+Dh/uNWQyImh3CaCt2zb8/M39LyJwxU9sUPlUSZOI3f5fi0BRlRjqjJDwp7BWl9W6CycQEpOq5zxTOXS1qQDnHNhRr/3+a1j0cmdR9CPExfXxJVCaeSM1g7nsVxCkUP4YeQ3UMxgMa/5KxtqS90ySmbJOlOkiYHYYs8IpaDrQTLgZGu+Zely+IfJ/dpzrHqpfSRAhs+/JrMApPL5pxs3C6oZHPvrSMoGCfBMJLOb3wsmNwLgfjzeaqnCOjCi43g+EZz0Qdpf4Y0mPomNZiNM7IGB7O8SeVoodY7WbQazsxCyRU16TgZUK5X8c9fwpyt/7ToZ10qGIMZnrv/J5NjVLSyESC+mw+rzCn7/XBQfUYGDyoIzYAR6w0u2jQ8aBASuA+wNR6yo35n8ldTp1Mj4MWYX10A3KXIP0aFvekSstvHixtJsCkLoClfEc67PjvcZvJN+Snnvy8CZim1sllZvvKn7vrUgY2JinwLgxTkySq7eOPY3cS0vxJ1UK5s79nUGWTnqAzGDlwVwEf5UH5TMPenS29v/FK6qV99AMRo0POEB+hVYcFMbN39dsKWmVCbVeK/yVINSWejDj6wXebb+a2uwM7Hx+yNXujNns7FvLIvbzWizr2C/jLwGr/9ydDsYJX1FIEebMbsQcbGiyMtI/pqYBqmJ+zprT5VWpgP4KF07x7HhjcczEiBXcTDKVlVO8V8MWGeQZanEFnYS+bZU77qQKKi3KsEKRuYZNU08hGRYhrLfz5sUCbjzD7ry7oHa8O6Mhhno9M4harh+sBltu3pIg5W+bOpgcJPKWFmWQs19sS1qIV+CfgYQeo2Yuzna1evQLbHzMTnHkJmPdUTgP/5Oy9qT7D5sspWgkVJFE8C6Js0dTLGrk2Ps7wHYiaJ26bMeh2hsGUGLy35ES/ap0xsRuex1bn4auXEkp/t5hau5X1xL4NYMNkg5FwV7Q1PbRCYS8Axe1M4FYoQlHHqYmusHsYwaJCc0Sd7ipb2SETtf++qgDwOlY1/+XEEOwL4QpauC01VfTD+YvUi9RD0fS4Z3R8B3+TNULlTrqdFA6rb3kZ1a3Lcz+CJNOhW+7TsPGgod4GrRDUg1ZEhqJ+midfDYFONEzwfusM818YjAOpMDhwygtYUEhSqTe+ND0zuF0cOzwJUa7hbyUflNBH8t7FSGHCV/kz1hthCyIXTBApYTKUcoXWsd+8ST3ChsRDfe8wJfXvqWng5f/UYC79Nj6B/ylUnpvEZ1bd/C6YCVpMGuLLSuAFtyAaAyBu9n5g8ab2QU5mhWG2uKpW3LPMCbXGRVqsGYeBdXiZuyHoi0etNVOWHd7hqs/vTwgEmRcSZFwKXUhw4kOOtNwCkZsLUcorfzSx0JUhV895K2avJpdGQK3RT0s5mSFy855NyGIJgfCWJBorsD2jyp0E0h5js5GX9XMQ/dqZLVPxVOeiqq2LRK6L/D7q5Fj5WaqFGLV8tWj1tBVaik8xOuHTEaYB4/qdE1EHBx/xTL5ucJ1fPWXMFiqT0wsgT9GMseaZFhdelN206cJcNl5GQDwpQwm55ICXMGX67LfhkYwQ6pvYdnUTbRtbfzZBLus0JpkkKc+9topuuz8T6xDaB6oNnOlxNSTI3cBoyOVwoXI2LKjBQo8XIMrOtaeFuZIoB2Tg8OkQJLMpfmjQ8aBAWiA+wNRra63pAvD/gAm+wgEDuvDKQ9cWjt2iOW5mBeBrHd6XNTKK0vxxeCd/dX6zT9RfBBzRasSnRsCCAE9eWdLuljsnYi5lk4WIYJdgE+WrMOf1AZaLyFCquKDW8g5VePnzm0zByW8vapq/onkN0EI1WFpQy90EEjg9eUpAXjfEv78PBH8ejyJ5WETg5bhFMfvZDVJsvRpqftkn5BbUEvEfynI6xa2Hg+Ue0Y9eq/BahJdDvdkBx+eHS65JcztobI2CmyaXWmL4aKqt35O3DdwEdmKyY8R2IhTqqYtUk/UlpFCaooH2PESCTMqaiPKK5g3pREIJmMiCWetaXRfQbhT4ehCvCupkEqgiX1Sv8kSVfJ9hinGYHDlTuRYfO3IKJZBdelOuR1P0gFhDgC5BUM1uVjrbxbf98uCieNv8o/WQrC6dFH89Z4Gn/xdbzIpVCuiMYNADzNrCURVCASNzJ6479L14RkJ5j69Qmfr0XHkR5YzfdW6j2UiC+mM/dI/Ya+hkfxr2+dvu6+dfxVRjbS1ENJgzfLT6sb4x1cNQTsOP0whb1+Gs02TW1icl+HTQ7Xd/1dLVySx32u8VcYmvStAboe65QKaWMTGYyDjuP77T5n+XD8JH8x+vrEHhNvF2Oy1HWAhJHZZOuobXbS1JMBDbmE21sCWkJB/Hb86WxjpvicgvQEsZRljJHKRqU9NREVxTBYPkJC1ShelansYjKdnlHK8vOpvKtceDS4Zzsll+SCqSUUEik59kMgmJoCnzX2V+bPO8jOk+LdJ9oUy9U3aQzuzFgTmOHs579vNEOYWwGfdFu5spTIcONL+JnM3ttRd864iKOpIhAApBMLH+Q/YeHYvRQtbiGYJJx6DTDZo5NQ1cOEzjEphS9IGbeGMsbJmTiV/gt4C94DoYlIwJe6WPUKQgEMhJLytMYgtg5vqdYPFmHUjCU+jXnUONUDGF+E+7mF+LvqYtXKpUHdvMKc4hi/pvS2ybtwaXeTkFlsS2JEqRxBpBCi353M6O7VDUwM135Gg5lMigs7TGGa4odUG3rx+L/0eOy8E98wcy+pXRNQZHM07EawvFXErD92RI4Gez9sszQUwkUFPOhgx8utkb9TUus/1t2hHewtckl4PM/DDohRtnVJC+syCMOdQU0H55Y3+NZPk7UgpIN2yi5tpsWmwTPafmmDmTwHGmosWobYOTN9umnx0bAtNZvevAPI/Og8jAhp/4i2NhjJBMQEswBxFY9NRyRCpDeYgaRBl0svesz/QRgSj3ogFaADmIVYCgzmjQ8aBAaSA+wNR+0P5ZAwQA4YNKwk3eSSncLYr7zUx3AyK4On0dELolOqp2NJrGnKi9WqSavERznHVAQLeDJJACtt61LHgeK8170xk/f3AxekXFp245oWjOs9YCuIf0sddGx0DvA1ja1j/+5L/3C8vJ2ezJjAZuo5Qw+yggh7OvAEQ3lDqFJq1jUskzer0YoDXEcZQ6ZabCrNYrWCbokBFjmVGxaJRsKQJjeqWWE5A11CgjBC4oc9bKyy6UBHiRZrbWPHpWoodD2Am3USD5opXfFWDrSJZ4WmHEMHimVHV7vozbaqPWfD6H0IgprT9mrj/E/uHWGWP3OA8j3XrCaarusH4JypSoJxx8D/8Ph95Xj6evRet9wSnzABF3K0biq7dmcUyAq2ZojAGk1mjM9cM1xWIy2uR3woapOQW0SFcL4KimkMvHIiboloiFGGrK8CAsvng1EFlpdka9FjONHV3YHH+8UNHLSpqauXjBWiJRT+mVViqDEYKiNY9qCLS+QV8RSbyp67ZHrB2GnuY/2sHBq+ZIBW04AW39E4Yw7BZHR31/UAdY9KOxIUWqd7AvoEpZ9s8zFKX0U0OWOqgcyaq77lBYF3PCm4oqE+pOI5BRv2dDZyXGl/jMZkWwzedNt+Ls8qMT4twoFT7j5WBjMl9hnAyTWj2pFWS02J6uMQpGg0U6jZI2q9R1d8+4OuUP6+zZkHPanAhMC1/8Z9F85ckkDHa+KcuyQTWLgdBM6qMg/89vkpDTqGiqpM12IBKgOdGGWFRogaGuusSEtAPgxLeLLDH2MfxtskGIX39XZ5qszuniZJoE/dtxIBiHmr2V4NU/N36oJH/IaVrlSG1FElA4oUiboYfEfpKUeFNIa70cHtwmfhH8yE+vrqy+s9BiTqL48z8KJC+Nl2Y6KU8UuU244HHp1RtDcyGZmTNtF5NlpOcY1fyR36uSIrxIVzePPXzGMa1J3vgtqotTkTVaJPKmKSjE0LCdzRqtx+/vmoxueH6vnS2danfWqmfEV+sKDyk3ak5gxoXnLixxtMRj4gB/ncmAYLlww6upTthHJki7cyY9MUPZ9gczGFWbN8FP/IPdxA8OBWkoIA70gXvqrOyU5pXrdOsalyaUn+L2ZzeSFZ0sCLET5xjRrAZnt04fs4QVdW4ddI1PwXwJ92aw/0NaxdvIuAzeMeOb//uzPiLLSNU4JszpKFMcPlvXoKsCvoWiNAs3l+22O6Xw/wtrtDXa63yuKGer+ATdqBem9VDxf8N9nkYDaQ/slyd5/Ss05oE9QsF8jE77lejQ8aBAeCA+wNSEvqJjjKT2Ef88GqpikoI7LSSZUZoIUhbqAyZ12yIEx4/zJOVuARhxtyU6xOaMkFgoNVL5FEAgVS19gtr15IKBRccLcIVmhIIA/fd2GKcj7dKsGKh49CnpezxYXSQMP2jvo7UvMGA59j9ycqgCW6h8gkfPXPNPp7abPI08s7zxYtjNPNHtCZXFEbCekb/fJY/iZ/KuAphvA0MAJS6yp+VtCG3PknKrqNgqO9kIaK2TyT22lvhHZbL6ABjoihzl/iPt6ZKrdfgmWI8nTZUA//67lYnoBeUJ5aH9lXLm96aNI6VfLhEQ8HYtGlMkOEpYB4sp63juADsRWtiThE8eHUiqKNaTmW++uZucMVt6iQpY+YPs8gbtSJLhiLB9u00Me20UzBtHu0fKcZyjMukcf39Zr+8KFZDhHRh3YHfgglSO1OwjZdx6fJtgsO+HgTgGpVe++RmUaIH3owfrDYKqVJfEv50lFwQpy9v8qw3HeF2d7vUSteWVn5DmOo9liE265NJ6D8YrgjlYvLwZp89hdewuY/OcuUC3URUPaLw6tGCQg7bMFcg/stWMuulixv1kliY0dfq7+Y9ulPlnLAFVn30/6w/7+FCVpHWsUv8vyiCuUWC+UrAL70yUCdVKjYFVytGWrNhHtvprcY5BcE8HGE/XIoLtj2MYul6TytETiNXxRUEteZ2TU2TSYvMshr0PbO/MTBuCR3kLuLuVAzHNgQlJROUJDX86Nrr9wd1Bs76yurHYlsEbwYiA0WTzXKQhcD9Vr0dX68pyKjy8abvjhncbUbMXvsqsG8n+9CIf5qeenOX2kia1zUKev4nCdTvuTPjjMbh5pIVckzGRFcC1INwU8K0sHE8DAMw4vfL65B7NdN2KClCBLSNnyEa6IB3jQwAI8cxhJHeuwv6mt5PYbGFoD7Ae04de85XjvQKFXsNmrDNHrj8W/EN5VGbXYx9u/yGweoiaWpuPf8n8eiTTBRAy4RTLWd8gOdzApBRjOboB1rqqtsKw1Nt8lbHI1NFGWooY4RZmvrf9CmYkHmj9OyQWntGe3xeZzeLvMCfTP6nbjilRcG4/RcWsuAbquuaDfWfjp3cyzdTq0wv7DW39dhmXHQUSHABtEo0J3OkTIM6/CkWBOxBYRWAiDwJmJpvYF0BgC2uAyS6nDNV79ZN4wJ24nGBH4K9sviEuysTwuHhHIAveppZtVRjHxXnpobvy1++/TbkyFOkahqERh/ef/tUGEvNP8UuD7SgSui7x4zibaCdA5wgx3Hjsr6H/ZoCGX2jQ8aBAhuA+wNZpSJ5jizmOHAchpSpjRLpw1d2xlY7Fmv4MF8RmIOH+mxTGX9YjYKiY5PdfBQVPzT0gLTftwu00+6Izq0k4D7933fwrxnB570T+wXsmfzWWUKhNTN65lmVGmVmeIS9lA6DBIZS7kohOscezIzuMmaj7SJV4g5bP+MxowtgiC2r3sasHDwtgbc66/s6bWB8qLVVuGI0K004th2NoovPKCqrfQ09wLQDqWfK6PHPZpbJSzsKFD8JOeU/EW9ACbCoBfjZ+j1h6g6E4f1MRe/7Gb6MZiIh8T7Du4q/CVc/rWC+F79aD/eQDbLU0kardHPQTpMqtgko2c1WlijOgas/cRYmMugn/9uv8w+8tgajfw7r60Jw0klya4F6MpX+FqUOVXcL0DS7pGoP3glKIs3QW4OE8Wq3BGjOxfKFuGHVxCG9BUQVG6nlIZiDW2QclCRzSgsVjjz6F0XTE6vEj1Qes+qMvMuKmG4YEbp6sjRbEp1kv/bcdXNy6EqzP0UJFS/IJ+Ia0jheNu7DfAKOHctwbwnYbOsbQsdV01lHyuHsmbS/u3jQ01E0WZ7WBj1HztzyYe0dV1Kd8etJi/zDcJdNjfMF49OLsQdsH8p5TiaJiuy502VZvrqJfQ4PqEo8vWbWBmEj56Ya2J13o5PLzrJCjM/Z1TXqQogt3Q3TBd55Fhp4/EjC20Al9I9xd9lfOUf5q5r/4uuQhnMG8VGOp0yC+FDKxLc62Jjjznuld1itTx9XqiFJzgYK2YTpwaX8+OslGe0FHZmQABue0KFgeXCkZlLhA1YpKGof+bE1p0O5PyBceSm/DegvhPUKb/+0wvYtg8TddJFfQKvW8q/8Y08wjgWaUesMHrhs9pacBkESzkDE/xcJDfcxOuNk3FlZabWrBiOJDlhjqgDbCJ9VDol1RHa8rUeqOv9yukKrk34ggp+ED7pQdzs106rlVCqTGdnZVj5Trhv4slJlCqnHkWrUoNDYGo/+PdCnMjtPgpAPlAGL725hIRA9jxDRSwfd0JBC24aSmh+Qe/x9FJ+JQL/5tIHM5E/Z36QU6UKv0KYfcLkfRmRcd29K/uwt6qYkjP/a92GYd5haNBT64hzike7N1VbcO1wLo+VO0qJsWjOwUXWMin3dFW9ZZ1MBIgYkMoZ/z1n8XguA3I0UpAfNc3xLTD8CcvrnrAK2+aNeW53IBYlLl4xaUKv5dnUQZex2D2hy/UC0sesnsp2UhChzQrhJSd9ceAlksf+gbZZb4o+aL65t0sbQDIBOQoF0Qg5oyrgP4jujQ8aBAliA+wNZrid2003f9UzzwFi13HbaFvnBa4fkvSsuh2I8q5muBlb8kc+aIq46+hxS7hRqZWmB5FcbKA5x8I/OQCUfHw0tf9itCw8AvVSXFud6Mqhc0yi2Z8bwCweH+SKASfnDTcQmC3wlUEySTct9CRE0XTGbrm8+VghkG+KyrtHaWoUxksA1Ju1/S2MMswxbs7gNB0lF2K/yGpT10Hut7FbK4cZ03GV34yhOL7Zvi6try+0R9IP+/D3OthQ0BRZ1k9yNw18wy7bcEV4T+febqGXDPn/u68HVLtFqyF2hIrMZ4rUBTw7fKd0LAH2YiWwf66eLtS0zrJT+9v4YhM7xVHcLAckfwwNvcNaI2EfaXMAFoCllElPiksBYu0rHrtcJ5Ua6TTVlbzfwv7Tw1Fox4Qxsf6n2HzIyJupz/nHTiF2dN1T2jlRLbmO/Ehw4JkRv9az2Q1d1AMTK/67B8yN5hbOvnKLhx6Ssc0HGFmOu9d//J5jOJeVY3AjSu4QBBNbyuv0oM2B4vpUN4VnQ9aVNouL5LZvqlgLGC7XYrG0vyiIhNsAmYjbBT4LQT0SroOfDHDq1XYyr+u1Z9dCd1XM5Oy6bvI4W/yCqxtJ33KOw+xe74N/gJjd6pl9wqcNuR/LKZdcxUA1yOP9f8piDOdYH/Oryo0SdFXS/vS3usEbhwDjRFbpD5uOquZ7akBzCyKZFDjyND+P1VeIO8Uw2HbD7w9oAXdLASNFYuSV6BwtPXzZJ2kZJcmaUUUlBM0O8IcqkOQgzHnCG92Tqd3deqQjEi2KemIevdvkrDgCrUUDL3E2viC46ioDCR0DPit3Z1nBa7FEuCOT//TkVU+H94E1LxX390oVwRQqluhZ8ZUUJ8Krh9ByD7uHDwpwypVxB6kSPNJJFp0uTKGVg08Nbd4ve9ZQq+iXkqPtMgxMSDhewGg3SzMc7hb6e8JtjnQeh1cgi4qNJEjA7xxPJyG/Sin7auBQC9p+TEEeGASZq4A8ZFRtgdWe/a7zSzCg4hAeplSJVS6oJ2r11c27uDk3FuVPiZ/MXVlI5eR85lW9HqE2aLPw+tnNDTf+yluzCf+Zczz1ypX4kRsGO4JBcQeyqw24kHXC+Pc7hk5bkV3zNhn5R8Xeeukgq9iJJlfDCjqkT/nhZnnxOM01UbK6lNkeU94jBce06wK2Vay8chKtRmUVbvGVmQdxdC3b6570a2HfQlbXuk06rrxHH9wtbRg/o7HKvVWqtDqzBxiExOx/XO0AhvQoS0LW1NVRgI+PDMCfm4Yfn1YJB1FSjQ8aBApOA+wNQfHksbHuakGn6g6xMCP/RW7dLffwRXj/d8JaLCCUmModUVmbqk9Wk3JJbuG4/Y5h3GVQySdzdTTH7ZYGwuhcl0VVBQiyhcT6xqP3l54RCi2k/FSIJOGWsjNmAiFZ4XSEfrT4XSaigHSM7E7wAlutsSc4/vqtYUlv6XFuX7rli1N+K+BYEmr9VitCxJufKHIuKwoSCf3pkTPJz062eRWXoUApH9eDLlQCS6PawPy+H+Ps/Z7hrQdyP+8RdPxCFFmOyyIA6wudRc0wmVk+VFf+x4sgDfh8noQJQ1nXeUIYTBRaMlAmiAw6BQDTGaZD5GB7UEHpPwO/qPmjOjrAKI99iTEUvvLwCKFhZzjTb68q/6LML35TEFFhT+b3R1GP17bThgp2/hNpQGJoQyzgxI8wMB0Qv4CtQheKwyHYeswpAXEPXloXfDBjM3avAHKUvO0sdKDXngtvaV7aUWTu0Cla2akELLMQbNAMuURvCVkpFLxb9IdBr4xBmkqq2WrhCl9uZSvyJsmNPzcWOD79ZoAoTLPG77krp/qSO4EQ05iwqmdXgdwCiEe2k38RnayI7UwS1cvdVvHh3/tv77mALLF4SZzsMotv1Gv6khcvLTd9wfCBN6+Tnz+dsq31rSfptQ1qvRb68XDO881rnqFN5NJFgvUUm2nda7gvlICzOSejoE4VEqFqgUThb1DdSnwChNhs/PGEYs3DhZrWo0ToiEuT/0PjHtNv9RGV4rVpEMeEdkGWmALB8QCvJDNrodbLCe8yHjP8z/rVlIra6IwgUiKp8eVGugquNH2uiBsn0UafKD2+CKq5AKCCZ8tMpMXpjb6viZp+anpnUEpdCAS5Ck3pZW0u4NKkQK31768tlnv79gT7SbAssbsdKh8wgk5P58uY6BO2yZXp6qRsTuR8kk+Ir3L5p1hb2VcXdWUL7oXYmlXkGvcB1MTOuO8h6A3uqW/wyRc5TXzoojZ0zHe77eGdZOg/BtF/1ZvvjhY4SEtP7Loet4vyFNvQkhu/KzlJg16LQlf9JoFI7pjUKY0paKji6rWNC+eGjpok0qTxzxoq/1zl/f46S8iTNeOcUZddvkCVJ3if9u2u6BFILktTJ73g4m7mP75n4szgsPxpmPDWUt5RtVD1Um06kFCYhBZhd3LyLZMRxnXU8WbtDfFAMU+ofk1aPiTOf76B7oiQ1uNN1ovguPUxn0c+YBTGJPnR1Aen63c6cqcRH89BAk/0L/ITQdDvzsJUd7EtfaIUlKNQMa/4ngul9cpPj0I7oHKmwur2jQ8aBAtCA+wNR4UxeD7avn+Gtpt79GLc/KomwJY6GPIJgE9Z3Bghw83RYIQWE76skc1imjEMDQHHx2h2uLmuDCm74uVc9PSH5B7040nztO/ETL5FLgHvOCYUHi04LyrZGe8cZ83NtG8KV29UxjYJcRtWCScnXIJXMp4/db96jH72a0lYuk0BA0/P091a7oqfc4COJhQxdhklPyw7rz4TDvbYUAXGa7Tl7TazZWYpEUoUSQe+BPbAO0Ydxdt3R3C6DwMPlG6h+RYakNF/FhmXXseR2kPFS5AjTT3Z3DlGP7TAIK+RunhOWheXAsKqVBSf0xBLO8A3D5bmMMZSCGmhq/tIaotsz2KatmFp3+7YeFsG44blqFflHkqgN23qDInUUgAk73+e4ez6SteSVbYi3/ttokFCOKLMdTO4U9THSDgKHFurQ51Sre1PEp/I5aOP2MNRnKE3mqi2oDQzkEkpjDnQLekngQ2vYPhOaCHvvM85O2ewftjONwc5gSSMlggOBiGfDTgH+gxoJMSjdZT1XtxOiYfPArggQOOkbUwArvUXaoEwY4nX21M7Cg/OfCpJ133i3UN/IyhFHjGMbL4LndgchvCxNpDD7quLUBoSNY2q2jAwgp+sTFzVm/nK+p89f8jVYAdJQwReqzp0WCkn3tC/QSeC3LZdoAYAAoiCVedXPSOApxCOB+HC/vHrP1FM6zKq0hy+VChsGjbDLwzWIOLQORliTW1p3NEthwrNQVMHi1ash/e9xkr5ssKFDqDOz3OhBrq8E5p/LueHMHWdkNPWFFFybQvJmnbka1PXP/wMynfFG9NFnTqylQZAzRzqU3uaY7UHvXZn2Ije7QPe00DyJn/KrmzJkUgIru2UrzKeNoO81jOXbq7b3wqq83kBoy6xe63b5Kjy/S0oF920KfZF40cBKSmvUuOjaV0DOw/2nDVyiHuPBFAMI1XA6+y8pBGbQTBijvP6TsMs9eMq+BY8u3Pl80AaCAwUsZqysELI6BLGA7GQ67y5cDqt4MQAyCDh272tyg3AclsptNe0csvr5G7TDV1UcbCf5J0jDUsP3qes1ylm+T6mvW09gC41osA4vhAogvipyBhKw8CXZ6h42ZnDhELEiarf4xBw/X+zRL23stbbh1vsGEBcHZxBjkXScpmIsOF6Z8AUT+l4b0S4u2Oit5qhUEyKWtXwbPBMB64BxHzBbNGOpDXTznh17UtHVZhMgDjUePl1yaOIDmauxQquWjod32GqUv2Iprz4Z/L6JWEkS5HwA4ccjyEuEtQmF/E2FLxKjQ8aBAwuA+wNZT7A6mMWMJ/zM+stBrEp1gaYKkizoDM0UDqEPV5QnUA+iNsSMZXetdiif/o2V/zwbYgjw5V1s2htTzPRCOqc1VOrPzgoFW+pPnbiDquoAw1xVm5R/U7rZPZsr0DteYZIVd+6aNEeYz6uZ1KravYUXAwoxKhyermrehyFoMqmPAZl3m0dWuzmbZUkQQngBZ63gx+ED4ursRZdxh7VYF8qmQAl9NZyJGi8DpD7GiS5PX328qXzh+pExEpQ0cufpB5sq3APEjjKRgZkSVtfOGtTThdRywoEhCpSKs+GYbc+46E9yUiNa0XEomWsSwO++pZA5UJGrHH3dpZPEr2l+E4ygQ11GPpXH/J7wqxxfY2FRIdGNzQdzz6JKOzvi8er/3cARw4udLnTy697xu77ZakwfZjW57n1AlmFeeGHYGQ+SWlH0KBZIBEeNDVr91pCPPIUoCLcDfjfB/qG5yKF5Xx9VjiVIKzU8LTuy6uSX7fnSNCcXufvrDKBi7bhYvLtLCyz/eihU5yGwn3HC/4IXaJn5BasaujT8ih1c0DrDLtf2c6KQFCQzIbM6g+QOVsuQUcfgcRXiSpjwr2IwDSp19sAYPYvEO3dDX89Kw5Xa6chf1eKSHifUN00jqYn6i/XETXKDqBFfpBXOYECaeE2mQMQCzmmylCuwpPtdIbbAFlyypWDn261rj+rvqYIxXfXfCTGn8NM4/88nUBkdvva8WQVtyCHNrQMXw0Wg+v2mj4tuF4+LC6WeQDu2p4DNqXIRIUJoo1EOr57zN1s9pGt94O5kwrvA59Q1bDJImW9fo6yZy5qc9Kz3a5nZCiliDebE1kAv9NzmqWY1BG3uYeW0qWlMUiDnXsX6v5BpSNPACNh/AZcnUlTbXC0dI8Fy0UnnhTttp4UWxzwIUh+nbifWhMLxrPHpihoU/6O/od4C/m7UYXH3uBZg2Zs4C8BMMNMwvxUJi13V1wB58E7j0AOzuBDQOvHN7dsMARFQeWJbFKLtpTAPmLANXDIiL5adZRvoqtQ7pCFCmZFCzjGi9Yu4Ue3bz/TkYmJldDdogVzIIpqSuoe1jY9mUH3xJHiu41Udw3DVnTpfvGrXohCZNMZmjZp6sV+1qGMd0D+zssQlnpvyufLXxaJQMsgV9/gi3RhTHe6CEjhiAybwT5DT9ir9ds8H1WpxkEq+C7E5XUWMAOfrYY/0/OxbdnXvDkHM9yA3pI7towJe6QUSInRT5gxcSER5ECDFzZlbevyXQq38KKdP/2dBOhSvUxdi1N8lUlMid6mjQ8aBA0iA+wNEIuce16WtqrLVvRv0LR8qGgFY6kxG4hJ+JOmzR1Qh0bEELcHwW4zFzUdEKQGtYhYPvhLpjzgjnCy8b2UswenjegvtMsXuwjcT0eo2eeVVEyubP7wIwm5LIueXbwjGAtUpGLgLmjW1YOf/jHfIiR2ZfwKQ4jlcj3n+oxtQi6DXO8Ut0xVA7pMr81LqOWXzkzlFnop6CVWtvkJvMDit1CyOeMvPQhQrd6vMCQE26Gzt/3Dz8ycoUczQNRXGtqzolxZ5qNgDvq5zG8ML9TANZbLkruWctRklqm2gGCIWojRNZX6OkRhklEuQBZhp6RbxzmgzUzN2n2YryKkVSJFuIsKvNXFOvsmOQsvB0tOQwKyLJfTvxw18C6fCKV1377aA2aVRetrdBdou7lVz+Lhx9OwC1nzM8g7AqeOPn4lZE01AeVHzZIpZBlQmiL+OAtmwEvTjhN1BmDXuM02XUrnyaWs7aTED7myVuklRyj58kexIX3pJYT57OlFdxOO7EUvBL2FF4zciGF+eALnkDCsZt7gETXik3fyB36+pPuBz8Gy3cAA5CnWcXphuEzZU3LOeuvfaK9mRkqJ1mueagCOjt3SyqBu0cVqzWhIvXnoe1+Uiq6rCwjdn1et/xmujOfmQH/PcgoHxgQ2yaHkHLUqxQkxxPsbvpdGRhuYh8XWtgb4G5Vg7ryleJ5698nClk3Wp+4Xk6by4ghSTPH+x0nf5mUiiF9Ds5AkJ4h2zSGFo6uDl7MlEmspZfVbzE9kzrNp+zGbrW55jEzH5fY2M7sXMsPwZWuodtPb4dyd6KHNePPSitVbNd+V+uY1wExzmzZFH1sCJwoSkBifWAmEYg8JB7Em1WXUaUBQyrXpFJJUu0JbbyjwhXvRRoG+3vuMM2TZJXb8fAB/ZiHAklObFFq0r7HOkNOANHAp4ovYQcJ6uzRb3SlHyfHrXcJnEZRPkK9of2RpxEsOODnAZKeU4AslmqYM1NxbOZeB884IsgPjH5nqmJsY4rkKyaDYucUF7N6JhBbgPvY+s/Ai5UwKR5eYqAyIt4FAT//cRnMtFCWwkd2r3uzocN1HPN8VebQ8HHeAvqMTIxO1TGdF1S9GBtFzCDwET+PSSKu2gjOB5aS2x2T+FtSNyq5CUPTTXg94Yf/hhsrltRC9gCsCz39LTyYk1C0ev0ZKTyksjKwRwqv3v7FQVAixC5CofLqCYuZG5/2LqSoAWnAEgWm/fFt9CIzcATQqolvx0IDX4Ux4zsEgY+quMzNcjWWTmCrtkdLtDSaTIXV2jQ8aBA4SA+wNQnYrdoRTF8cMMkmhPgdSBjH9Bm61wacqOS8yOOC1vzEVeVf9UVCnLz+xh339pdb1WEKUbKyGI24FJ6Fgar/FIIenG2wQnu/utp4DddcUW4ccAE59z/3Y3nCx/YDEWO2/XCMYTU4a9qX6zMK+YqdRSvEwwu3kc7LoUl0sjgiayPPvhrtq4/A7SA78WS3zuaSQQpIRe9zO69lAvPBK/FRrgUTCUKPAo1rXkWJtSUUAspxrdBiEh2kRs/fMJgStdtlW6mxfr4Ln209Age/0N14+UdgtahHQQqZhtQu8Az7WDk4GUa2tBNhmlXQjfdCELg8y7UbPAx0ReoGwsYO287lyEGIswksx6S/+Sk1EDSO7aPA/yAm2heG4MuOJoPKY1SWUd279lNi0jJoX7ttwt39MyY0qdjgNyVgBdnL2wB23tA1J5pxKPBeCOieRakQXejJVqRCypDBDbNmsmjhnje25gHp458NGTZo3Tfv+O8ZrrgeyNbXedJTOH1SCfF9MXSYqzwwuXrINRcpJk6hJNv11uqs+a9Bpz3DR9EM2MAgh+2OKO+0xxeM00UwLi4QrjVtMUSl6jnXwNL2mAKkX2+yo7S1ESCi6/TucZlzn6tLWtJKx1lHStBA6KZctxHOrXSwxZo5ec1zEG6rJIwKrYX8wQ+Fq8dosCDwh7LyrtxiqcixCfQ6uKCqkAjjn9VYZQVAzREb942SCsHYUAInyvHTdUO4dolEDRcNujlPE1DXvyAAAOzFMe0ZUZbdpUT5B7FVLqk29y1BTAZQTn1QjEiJCwtwUqUr4rfjJiSwRHicB7gLwqxmAM+jq/DMsVApLMuJUYwtR7NsKWc329ZxpH5xFUUXvTjhJMNO5RYj65IHZnQc5SaPSVKTMmVK9w222oC32OvjKBknwtnlVdgz0y5pNtSKByOS+XTgGcUk2qqTqvcsWih9qJ+yFHKKmfUffjwD2L5xvP4VUAlfPwchJDz9Ezm6TJi69pz5/pA9KCMhQym9vh/8nsxbC2khcVjQTgEObvRct4Acen9okxIC0qi+rDwivDIdGw/pkGYKSVP4eCKCI43To7yCVTU75KcmgTMRWh/7dVI1OZ/LjGsTzgLEJ52zMklta0JCMO6SpMPKlcJM2XP7iN25Z+o3X3E19SAnCaogKuuUGC3no02BFFFYNuoCyyVOO28rnhu/P7EdQbty4uFP8GX65c7S0zDeB/eRdLvxIq9zf1jNA9t5lEBqywov/2vKBymoB1zfCcn/vadVwit44hRs9lk89KMiZqdmmjQ8aBA7+A+wNEWeW1BF2IVpb2KL72PTTdWppVke/v/FiW1TTjFtSfA8O9BQUmXGC4Zp8l/GfHgc//3E4YuX0EcomJFZn3an32BYa1r7BAtQ+w7FuMuDTOeuT5BX7VSFGhAG7N2mT25ZbDikdxHixe04EBXc0nDZ06jyMsXGxeAssgYPlnJP9jUeXxYNRx768WpJ+2BvwEZ4UkP2XXyElAU3L0cXoPgidpr7o58BwZGadzmEJPryX3HbwYPwG4qZFYqbuBfXGFT0FnwOqUGQjfvqTxFwJQlDh3/ppzKmYfTapHczdZhNLb7Ui/U149wavBRFKS2SDuJK/XO9YsOXRdVkIv3pbVRW5sN6EGDWSLb4vh5F2DZizIXdnX4qGrXweNu+NYNl8UHNfj1yJC+5M9cKmD7PdNtX03D/dCJH2OAP+w+yAXlziJ6lokJkB2sIoOy2OGEwr33ERFsb/5mhBqaDLpmZhMiFsESzHfzScYeLyvikWXJcXSYYH/jhYAUDBXaDIXFyRZIkg44/sSwzkMOL8cPr9p5uiLWbyl69/dUdDUGyNSW3szLgBtZD3X9fctH1hGhQ3adTDv/KmnKmtN34ye08S4E9JF2mEkXCk6YhM3it2MnNGsVjNe6gumuQSlRgfmcuh6pfmHEQqkQCn+vYM9UTuzqVLepuaArCQy2c6rnJFYfCU3oeq1lNJlBe5McU9nF1KNkAREi3KkpgPuWtR8Cwfo/LsxLwbEZlwAyVDO1emHf6kjPI5GBp+lRyGna81dd3HKY0vsCvZ8i3XKDItVLRtgNa8/NEV7vU7VHnHjYZW6JMH2mks5bMlvLC4JymkvINg9R+rab+s1Iwdxc5GJc0glJx/3WhEQBu1T8cqF+21AQClRQMaExld9SLzTfaHE7qjEGqaOFKlKfUSwl57H6Q/LEi4lWty8K26wQGR2DsWV3MLgNaBQ61xPPlQ8EJrAdM/Qe1eB+vdyx4hTy81Muxw1ie9DGNLy/u9kMGOtu7FKDRGpCBe2s1v9qrhjCgB+YTeEvyNi+ErBs4kSsJi0iod5jqA9ozPhNxXlQHDWvVeYRngjqYY+j4bOGoBv0vtvtAT//BJkXksYp7VVKWMn5gVKHFC91XA+kHIjiXRTm2hmMYQp39jbSLRn+A0IFIjnhOJB+GRxmdq6RS7J5eEEkpdsDnKYLWTVtJdJcR53Fz2WItRSY7EE1nojKxzWAWFjXBOdmV4ekNohQ+ZbKYVZOR9ZzOjro3aJL8mmm7itGtmFVx2zbYs832NcW7tyXtrSOVWD8ZWjQ8aBA/yA+wNaPY7Cuc099dz7MyRSNNWq4+E5qrloL3utMWB+uKhLsY2p6YLN2NcIPlsyxVN7biTKbM4cgaYoURJdHGpfW6Q0rSXEFvh0+60duwTYMgu6/fv5zywb76E+PZLyEq0XZ7sb+NAh0pdYl9HDHnj3fK7/naOr0lgvXyRZSvVCrb02MdYPKDvLhZ9Y8wQvnaKT0VRo1/KsUyfhD/vrC0DoymwQLFheqqZiCFUbk3mYYOLPZNZTwGe+EZZLCimtPPe26NdQUF7K5MMjZ5l+nMkU6ajnUadjK/raNXN+LOHlNG0h+T55cNoeg8Fm+GxDfudgqOmwnVBBoIOrg6NIl2oIisBTIWKlGBXgd6KlNCBI97bByKbuh+GI7LBcnH631pPC2vOYGbhRG3myWR/PWoBS3KECwEm9AUzmp2JcyGW7Arp/rlPAVtMdrrSNnMXJzX6Nd7L90uYPHnWIh1IJcpYK9+OQWdWAOmD74TiW/sPgx9bK4LF8WhUOouJDxtQ02X2NfVj6N6hc+aw4XCbpE52n1OWqRlYZY0JTZbfGzdIZPWEQXWe02mgAbRTnaxKCW4lbpcu7Ys2QMWK7TGiECvCnP99ULOvjM2zDbTPjJVKLcz7wokZ9heBBgadmXnhqUhnHVm9L77UcIZArWGLGLA4nDU2oA0u1h+2rA3ZWh1ukk3nz0UMcaI8HU0Hy5uKrNAdd3sF+DMDKwlJF4duj0lUA0NvNZPJeQbp/O/vOEHopFqyEBnZrG/s4jeNDXazlnJaRvZWkSu6vWzg/TKxqsyCDsaFm1YTCriCztN9euYK93rj5ZRzJ6KhBplNyTRBViPdpLwjKa2tyP7j+Yl7LQ15PRdFrUekrBvu9JnhLVUHJZnMLgG0yhNJrS3or944Xn5aunbE9QFKrogCW5G9wbztYUHMysfE6gLrnjBoIZ9tnqJioO+Pt2eAZkYpW+KZ4OmDIfp4TaDeFCwB4eCI0yqQp0XaeZVrQMlJ8qp87/qjWBMNOuwEGCwbhtlmb+qfYgnak3PPoiCXGZI2vhuiNT2lszaMthYL8O7vhWy8L8QvEMtwpTj9R0SPTSJjcPjXAqNHman/pUyv/2ckHAv2JCUHEg7nkU7ZWtd2KaKYIJJ4rcp7+13Xq4KMErM0utk5i2iWiGj9bCRdRgQB8ybyigpIoWGgRd8CB9DO1KbvBBVMps0RJJBQSu4g6UZJDdWrQ9HikMIpunHA6eP9759l18iS530ab1cN+K5J2CvjvVE4yaozfXdiFyyIScP5gssdDPHe6TUWjQ8aBBDiA+wNEHUQjpmK681KWqc6GlrRDpQN8NWMPh2x/unqC2Bx80HfrnmVd6YwG5AJztmKmIMB5EUd6mlBr/3S5prb9KrG+k1VFy4uC67+9uOp7mLcs0mCbri4N2yBWbqHjXeKK5coYJcKUpBoh/DNORvmvZJONdG25cVPTHyaupoG6dfexx7V+JMSypEctHyrJ7ybhH+gEFEo//pl9jpH/8yKA8HGLaYJx/rIy1sIbkE1MvHW/D9awAlcVGmu5YEK3V6UjQtcsqaLBw7p2YyME33/vKAZYU78TM0C4KeWIanDgDZZVYWBaQ7aO+3BdkoniCePtCoX43baBNvwvB0bHus1OAzBzPYIkhZpVFDCZBOp22qsv3/SpfzU9XsEC8yBcjdcvIQBpusN3V1AvUnd2+HdsSWLD2eMoqbYf5XJwwo2GxBmdZFO2jTRnekSNmThhVhJd4kkkY70a6axWwv3KKs6sZMJA1nfC38Z1RO0P9l5aAImjW22oyXEbjHHC1asuvyVmbEDzEWKvuH0eyLytczyPH9uwrKnl0gBjloA7S7JN5tw+tkF6JHwRN22+7i129poZzZKf57mSej/MAuE2maYVgJgpgI0mTHWl1favAWfwe8zoHxkJfkRco/cnDwEGpeypaUnvdBDyuO029flsaTHQ18Doh9lOWxcBQqoM4aP86EEdV1KgviLhkYlavc0F6B1Fey0JXYg5nu3MVlrDkO3TnQyXh4K2zwvuHjHvOhdQIMXNKbPbVYNGiUf+PcDX8QRKnZmKr+3GeWbAcqovxWt34xEy1tfdl8wjuIukApmuCiSVoJhNUqobvmAVkOP4ql5tk8tC8C54fJ3Mc563JmZt64o0WWrYLsyndRTCvyGTHL3i+HnDk/pPujQ4WqCjE338/RwbCKPncFRAUO7g4xj9qzoJgPDVu6ZE6UNhyMsIZYEqKiqf1+RSLLzMt1PUfbyN370fXisYGZYtQ05T6N57dKtLm45Uy/BSCNu1Iy3b7pFNpoV/Fac2Eze3iIqSJZ3gZUG5M6qmjHBlUqYjgKT+AWx6Zjtpkn6q7lACl/dXt4vkpV0k39CRB0/03cZ7GqwUQ4+KIFe0iYAH3RvdTAWepPle7EdOvthFu9qAFjyuJ/KLyZPXHb1FMhIlUKMgxDnAEFyhRLlJRFuUREUtvsNtSTOE4KPrjjoD8DPqvugXVL5ORD1Yj9huU+OZtym26dP57mGYHueIzm2iTH87Gq5NhauYB29ulH/i+xB854mTgwq628MJ5zYlle9hX5xgICp8dAWjQ8aBBHOA+wNT1zHVg2W8RYk2zMH8CvB1cCpZ0fPZRwEE0Hgcwsi3SQNREHq9/KvnpknOcPqqEjbJO3xc1TkI+TB1Eo5vXRX7wwtEf7+3QB848CNVYWC8SaNrSOFyJlsB7JL2Qog5s4S+/J7mDasSkSpvDwCqKtsbQr49LVaJ+ZhB9rASOmdRGpVzY9W/xDTbPQLsFJrzklPk6ZS3Qb36sAA77+2XA1uX4Oy7sNLPlTZy4/L6aNZlSA7+ivBkPEggHQkZnZZa0sxeFQr7IxPLloT4O8LBM5qfn//HC79lTLaSZKg2yYzRRQEl7lfcOFpodVtUnPp9sTCNSKw8TcCTjSWAUMRV5bsJLLTG0BwXX+qzsT/ILPpenRWkiMI9plK5Aa2UUnMIrhavEKrqil/4MTFEur8HXnKVhxJd2Kw0K+Jh+6h0VMgo8UQWk71WDZnx7p/3QeBUdwFBErlK+lFteTAgMHjWdHxRCeQj6/Z6jqj2Ija5kU7cTTIvGE/El6YfKtS3JiJjsxAGqHgoHrA3zR58WtlGLXgKfPTLTw7lT24D31CsVvGM88CXnfbtWeEpvTUO7vnCp69fFDi5zWh+sJeVDyx+CwAJpBAmqevnM8rP+8q/VvwbykezL/jHvXSdXgXbJvBDnfGSY1HCqSAL4k/uUL+hTfiiPJmc5SZFMlor5E6z16rEslhwm8Wa+pag4i4izCqVrxCuBQUcMz1HX7KbBKxOVe5PieGyb5mTqQwb6lT+Z43KU+s0bYvQ0zbrNOEWiz3wtdsvtHqHh9HMhDQOnY/FdV3beycuwAk84AYnlx8aecO8wlEZxHeqeImVzYp6Vl3sWIm3cfY/TAEJgoKOIrN8s6XKWaUieZB4puDY9h+LGThxV7yyK00cxFC+jo21u2GryYzOl21M6nALMmS16FEa1mhXE7DTgzwIQ7lFOb5ogSb6LpDmhZwEnPQFE8jprUoqS20Y/puOCPQK4n/60vOuhJtiGAJe7K1BQeCxUmU3zPjvv087mQchwxxrqU2v7hhMM3WH+OMe0xa3Ato9NOq6VEAAFz88Lsff9Sv65OAajeeAuJI4EkRoy4I6ij4P/EpHa4RdHFEwJDi0bjlQyvI2fklW6v2sFMJyyYiAwWQg3mumogX5u3Gr3+MaRNZeDQ/l3xzRYJIHsOPlI9g0TmlsrBgdaxf9R+FIZsuq+iPamEzsyEDLRL0bXDX0FEw8lxxpoNYqwQbbauAyawzYcwXD9PhLOzCSIF9vGLUnNZIQs8JznlgMd6g1F2fioKcltJprOI6jQ8aBBLCA+wNZpUubKsTFgrVd4mo15Sj1/68NbM9Zmj3ufMd97CDu40B0O9beN7x7bXSC0PPVspprvlXAsV+2MNdvFaNwBb/LvyhKENwKyG9F+FMStXIFd+iPqBuXinuxBL/Cx6oRNnNNswfZdctpA3ySGVH0x1yvzuWvSRT/TOZK0nsk6K4C1+hSNqc0oomKMwCpvk1ORZIHEW1HVHAUchleCjg2hBVOt/iy+fYPd9LaX5KDAw4vgPScA/zkFkfjU7KBtHaLptSnelRhIAjum/muP9pL09ANkr+73Nv/PmMJ7+3CmUo/790UoeM7ilCK8JJw0yFYCynHs7vj8hEIQLcAzn0spO/Ws05oW42gGZptZFZKUVcKFbgo7aRdDRYQnUcM+htW49QRdYvH6DSXI3YE417GH4AyrGftak0hv/Fg14VNYYrzJVOz/FA8wHMBw/fzZD5/EvNme6V7wt2xCngf8FafV3WgdWhLnDy9LS3f/OJ/zbRsu9X4duAPTPiiS8SnDqWPrjQXiMUUBAxTaTpUck9bbqDIEUOX6LFk+08fk+ulFMb4x54XAwFt/01+L/HqoiVWG1XXkN78/1KtGaU9knoDwX2hCYHrhmrtl+Y1gyvkKnDXoH52+MM4iXO6tuIKm2bFYMfsgJ+Ne/bOI8s5i3XK+2KJwth3xT6Evop5OtWxGgMDuVc0G3mo8Ib4aVu7f+LZ0dyFqbnfmvUHbw2qC5DYSeAxVk9LZ+9LG4WRCxrzoAts4gH4Gj7LlYqTOarSHBJ7w1s8fgf6s1WFRtXkDcMxk/lbvEfGnSNk5Zvv6BO+3rSM+1Wn8QSWARfF1Yhj02ogMrBJihGkdkK34l7bQ42oFbSIRP/OBKwRy+N7o+OrN+CAU+Yd8x3u9Uz0GguF+cDgVnwfMu7rHICmbR51Cp3DiEzr/KEgJ4LQvQollDYu/gXX16c6j7+9XTkImmnVdkyB6BCi+BOUQC15FgN7D6q2HvVO4awliEcJ4NTkZIMh8wZndy/2L/6kY1L9IocF/g8PIe0FWAz4K8LGUSRJBDgcfUQ7H1LLyBtvNa7f3vwkNK5MiIHYONEYLnhb37NVJYcgQkYYNh5LJvBi06B7CQfYIicdNcOt7I+k00B6NV/dIUJFKOu//YFC1KowRVLnn41Md2BjvzvBlX2nXawqBvIv9UO4GulwCd7+WK9PglCk5nuwkNnStCFULAltWjvjZsc4H8VDu97LoppuXb1D1pjQrBqMXNmvLHj3KzAIH1dJ+XZ2nQP49PKtV8bhgiGCCerv3bKjQ8aBBOuA+wNZqL3NNSrhvnUW3RGRQ4J6MoWUwTIKxskux3FfgYZX98xyiH6LUVDR9llKQ0SfPAeqrtKf7XXjKTRQRzl0ubGhKefhR+q6rrQRlmvyyXVkDAS+YBTScMh3kNRQvfcFna5huY9M1/NT+DyD7MhiyDo3zd/QshPMn0xhDSch6wrb1jstnGZx7Lyoc6O91nNaniyh2JmsRfwyaaquONUMcqpq/ey4w7SudWFwdqtmqSiTALkAxr6yjJo+OyYFVNtMqqLl8GOeUdySnLCMFN9c7thYmRK6cTelGGR6c9WQRL++02Gsx1vVN5laTsHIhKF7dMmW3Zxkab0IvZL30I3YDsDwkGCK6sOwtWQcivODKmq0VLHU2OtAkI8kjferQpJ/xpRyhi8vkC9iBY0GWd7tpFtqQsUtlr3n1fSx2F+XriczclHy6EOPbvVLgtPlObrOfqougwnGc0nJoGb5LjWEtr0LxKHDV97oYWOxVrjl3XiNUagew3Vh09mf61CIfeylDDhmPc5Cf2EHRksqVZ+Mm+CsKy/hzBwdmEKrTaZcKvSpY0V/gVh2yFuqj5o5JcRS9GRYh2qGVPxhf4IKvXa2py8eL4ZnUWseNwxOZE6E/FT4qo79HwVDgkPEslj979KMVxoAcu9pe0YffmlrlCxy+hT0IKG/YdbGbPzJDo1DTGES0EDobAubvNAha/pMTCZAe2DZUlL0H2a37gTavY1KRqQEGMxfZxi5072mLQfgh4y+0hmFLhUyOOrN9xU9DZXuDQiqy+EtAobNr+PEAENPrs6EZK83W/M1l5ys6YI6IseBgRcj71jgBo0348tshIV8IzJdhZbLJjSX4V+HiQSocb3aUbAc4AjHjNOZNNBfcTdkwSEjTWLoUgHcac1SjBmMa3IiZNyjcWHQEUKXcXNRrDP+jH6+/K+rMyjMoSxNbACo8Opek0qaAYQNgQ7BeQmrtZcSeNbwLxg7tPsoUXivWgn8qPNlHBuV2+W//uqURQFh0dI4SDyJ081gQGiw6MK+SxEq2nNpxL0s5uMsT4bJK10A+7kVJrE3iESJMQ3Ec05R1buu5AT6v5ywsz93Z52/GLoh4p1uBMC2w4Huk4lOkfJHZlt6uR+EMzbh5eB/WMw7VskKiW7V3M3oNrrZDJPm+aQ3UK78j8g4ScwncWuAVch7C/VGOJo8DgcfG4x8/bEVzVMV4A+K1YqMfikoKRs9W5ftatKwknrrFwj5hoR8W0O+Gx/Q2Opw9qhC4fTI+e6Jv4v+ggngOJBhosgmEuOEBH2jQ8aBBSiA+wNFAoZoheNJvBOZoMSFqDczlJvljn479eAbMs5bKg3pXN6QfunsLU4KmjFDCARsYHdrjUaVl+icciC6ufPREZSAILS5J4srADWCndb9luuPHb+mi4ftPHhE4KhbwHMdmupFfkjeoLp4XZYOlE/LfGW+77cR+D+g7Nn5y+JnejmG7GyJu16jPxBlaxmsPVDZA9g+y4AnqN83v4igHhWTcf1h4XIVvh8VvqBWRRO1ZXJZ0/S/6n3GyKoLGVhJiEcEUxCVQIU8YMlkUqXEPfw64yS3gyiKWjkwTWw2bYl52Re/GTuVJK1f0DbzDzdvCXV2XRncQg99AwQdt9bUlIA4dhn6zk7c/orZKOUAbCEOUBd+kV2i3mH3pSmqn9Pd5p+u9awHH9NfKTY7AHQlqO/+DO7lu1VL6tjBcgNarm+YKfRi8lJ2OUT/Hm8FOLWxLGfz4HXF14vfpkoB+fxf8bzJ7q38zwUj7JlEei+svSMIQ2q5ZKKKODR49CFnd4Yqowr1s0HZ08vUbmvCV/L/zi0wW5sbh5a2bfQWrLbts2bbMQ/RZQkOkx7hSR42eVvZakm6Sxbj2OTSObTBD+2f1ZtDdQZ2oE5PvGoNxKgCOsxlNuxVN+7DlE6a4JsQMDMifUyEFtn09ks0kzsY6IwBZDcjMudZdliLLl2Jc9kAj8rjJdwJFWLG9zO4OHdHPHDTheAmp61GV0AtPCqXkFXWxRDE9w90YcHQ3s9YLhvus+jKxfbvsROli4NH3dmX5UZbL296TNoTzvA/NZkPQRzb5d1pv77Dv1wor0eR5fJoMslpKEWvv/MBSnkXcUAOESN9AvPZGYilq/amd3p/3i7n9iuEjDk4UhjShShGwC2wNdEUZMTtPyXF+keiVIYvfTiPoAwUs76TCfRs5tjEoEoHnTHri15aUFIk/1OPc5bOpcd2ySE2ed0VdldCx/96jDTwnb3AUat6O5ySo2MWyOzfYv8GWXNILvq504AZuwYts+6lIaMaDC3rWYx323x7A0x6MENPYCUADLlhvA20mRa6IlOzkeaIwbuFP7UK92G9JFbjyI01MYdPBmj4C4ALGAMJLhWW+4QXtOMU1cLx6MsYOcXB6B0PpLCGt8e9pjx3YaaW+FIZSJUjC/gan/H+osNG2ifDo2T2YuffxdT7+UbuV23hW9N35xpedI0kFFEHZ57eKglTd3yvzpO6IB7pq6sVVNoq66E1jvdKzPgfHKdmzpkLFQZ6GOBOVnwAmfI10BaIZ2bJ5mziuOqf5+xjwLVdlJLsAd2jQ8aBBWSA+wNZdSLVjQbvBqF6Z/PCobPXFaiCDvb6z3ba4czVqDSvF81qVQWL7P55lEbpHCQ/birpWn0zgN8AX9kWbGy6ewmdauITsQKQHfb5ldStbF7rkmSWK2A4H0Mj83Ipqf45/Tw251rl3X5L6rC/7iQHCYDT1fbUMXIbbnGcmCUsOBFoKpJMhSlSWcA4L8wbMaGZqM44mJ+jYNNGt+1+RM8lJy/4HmvEwJ7yrbv1sAPwl4b8cd/JI83CRjL71j9eq+x8ESxpyqhyI9tHi/md1/TIqu0eFRoKrzGdM7KDMdRei7O+1ldC2yokjVtkkyfKg7q0gYjOetah96QycFKfG7JBrlcPdgOXxFRQzoRudKH2gR/nvCCDEixL+N0SiERiiVgFFC8PMGIgwbb2ycoMJ/bQxg5FCNXTWHg1dHSSnIkFQoBHY1BUrjrjnY7ZBEa3IVOxJT1GbRAYKEBZYIQxV9NIdh1k0u7ArCUXW4YxuTNmnISjL1ZKfxb+ZK5qBJWqG2ZN6nQA6yWZWEXzx2l7DIdlfzRN/IE46t1XNEZJOu47ZjumkeANlsO520GD3GVN97okHtGbrPxY/pLer2KzvD/f+aLkr/ymDt1BIuBfwCG5SGVbGF7sKHK+yeTWq/P92/hjldF/Go6DVLBefRyeVWHWWTu5+gFowQsNV1xAeMlov3FT2JwOdhbMKVFXY7HqZwhKEF7MZRbWabFQSpiKIind4GuSJ0FvmgYnpE6U6VBrdFu8IAGhpzccpUrRarePLG7/S5El/XwJCGKEc/j6N6APQxmx5CaDg+Hck/SrSIcgCEqowjTMcc+r8QS+9HnbXFMVGyZgj58m5aTjcnQNe/m1K9ySU7SLjFijbyxZk7JbCQECi3nHgsh8l/VsdyNruGDHHEg2T+zvElus4D36hEqRVbPgv/b+FB2BfMm+7JM8ujMSigKVbF3BNBE2wtyDHpwOCLBm06+O3r7WReIrZEkxRimpT71xbutAoAaU+HXns7bt8aAd2x+mR4ym6olBX5j0rWyBNvWKghfshwzt8FI3vkNu/hLQcx+9jtuPmttBV0R9+gHBCaLEPmS0lTAJ4jLabsB2ZyvaEGmQ6ILkvx/olTtusicwuIt26VveQnVikaFXSDdAy07GLhANs/qreD0VS4BqS/KhGocR0EEMJcN2nRtBRPqMIuWY14NDT2KJpVwjArG6xEshwaH0P51vCaK9Rjfwr82L8a2UYTVnIoVVZ3F3+O7LwktSyySQd2dK8bivkQxqWZeICHjBBy3jtdHcNPmjQ8aBBaCA+wNSJXJKlqvDnCYETszg1awsqw9UYrtRR/BIsJXfWamin2Wuc0LnU1W0/j8hTgwFbiysU12QmCI4siUg7wmGqBfdtr/JwKZvZcQ2qL4Ib+WMYMkDQ/mSq110PsludYKEQb+nLyirBRg939GlZOXfJH6jO3IF+NuF2K1TSsS3JKs3PGmBP5Nzw9UUomqBH0lycoMYXeMD4vyNeHY8OVSTmxMX0m9kuL/COBxWqiIo1H8Jpg5RR7AHGWBQClp5kOVOy+pEJPXCYVSVQ+mwpZflEjGNYjZx4h4PWwQEZeW8ML1Xn4KE83G0GRj0oFonwPghCN2qSbu+AtGAY/Q6tF8zHapgrqZMz87pX0hjJkiyiAiD4b67vRiUv/NqTg8B4LS3inY8qZvim/TWd378L9yhThGY/yzgw4eSQ/R5ufG2mR6B0UQMOktdW6aur8p8edbRnY6bRVXUxzhDLIfutA9FK2pjP2iu/D6ZzBuNfjzFmZNpY4QwRAMnm2D8XJhD6MQmvqN7IUXyfldRXlOpNQ0Ng2iGnY/BcHiS6A+6qMKCO8cjU0ZX3XSNkMmRL+sf/RQi4oLbmduXQKanh+zryUdIDh5XMBMI2apq1kw7EgxIyDWjzDf7+IOsI9PHfuLwtFZNwBjjtc+FMonrHFQK2zqdQrvC1S20tTZBQx9/urhC27mRrAIILRsid5eX+3nIKRfg1tmBncZgUsYoCMrqGhBo3cdt4CjATDZceQKBIF3+pZqhJG7NRe2jxPQmUGmcmme/R1ghBzLdO/ljkYkneyzKSq7SQrbSOLS/fkktfkm+ndY1if2mAa6C4SdVPZqW6qxGB+0z1POMJ5pugbO9x2rXkmL4Ua+KhJFxxhyHmAIK85ujZ1BibaSYkdWuh7W4b/hT5pammNKCaFVTuBICC7q+eTzeKWeMpgg+GlrK0Z8Xd8pSQejREeOvj29gjb5IIET6gPAwY2IalDZAYw8bGZfJN5pr6jyBTSBjKugkZdJAnZoVvx6vxj58pKqEwVVvdYxGfxlJNnu+qAGzOJBnx5ot+5I5rUxhd8+BnhiWN2KuCZRQSaaA3kYgh4lOpoNJyxRF5NWI2Qm7E2ZtyaHWAjF/XUzHoUGPTESL78NdbawmCuVdOKbQB4z2HiVPpJ1GAH9DUjhXrwDuszerYiqyY/4PGW9lhETV+ey7MAElE3BZgMpcGy2H6opwVDmoKRaimN9JTRBzOy0klxgN2BC+YwTV2bx1i7vPmfgUkxTzK2IIMxnStAxDlf+mYLpjpjdpksI3qfGjQ8aBBduA+wNaJA4PUb9Me8zaN62NBtfu62enP342/MY8WP9XCTZ5wOEBMbGYf9p1skqDcUoJ3ve/CE6yi0zPO5HR1EbZKzwspdX/PWj70NQXwzeYCqHbVq3fr08ljpyYJ366WIez7GvpwsqPf53KOTchKJfGALoYVlqxokUg+LAahN8QFeHfzhZestj0iaHpjyzUiJWFErCMDJkg3rR3ey8Tuh/6BoNoDUy,
SC38NmZLAhZ7ftUiPEtEbg/bevqXBmjgBUt/7xnKzpyvmbmLc+nuGAudefnzlbjxWcSVEh09Wu7nV2cZ0d3Y5gHcOkIm5qhXqqyQ/qc2sKZVHaDw5Y3Kq/TZD1lGNrZ0/YUUss/JGMxtHs1XK0fZdZy39cy2Z6pMjLEsKS5DTPwx5SW6/CLhNP4tz6R6XM+QzkdaI3OArphrSCLgLlOPnoDmb6++8tdQ/+2TU/CAc/fQcS8zy3X290VZ70pO9EEFPFTS+PzoXb6hdLuQK46paD6vfKITpqQBmKWFHBwkRR9VwHXN91xqbO+/r/RhiZtamC6cZlbDrp95dQ+5raM57s9wvUePD43sfqtXQwRxPzQ1jyVxA2ZaG3sWtir3UNTngJmGt1LhNLd7O1+gWstVHXZRhEtXk6lAdbRtWpyaXn6ez38TcdFKeVIdHLHcxHThj7lrpWTjFetr1ltqRbhFcsKsG4UElphdXaLeeT5mFqCGGRqUKRl+wNfWn9ZutqZXfO/QUSMPbYme6ztEqtzJXCwyR9Geid6/H7e9l5I0FjmvDIYIvPHMapP0mMXTDB/pdH6GMOCrmNOqgKZj/BhyQdMvmIbjIt7nd0C6i185oH4VGlra4JDep9QRSAIBUk06mzqNG7SwQ29spSSadzshTHZ9qsV0+CoesLFyify14BSz0InK+dyhSG1Ntxj4bZ2+gz3v8A6OQ+hlHZiF1ItzLqAEdxLoCXmjsT2iZqGi936gE/yHYDfNF/3Ia33elj2hteMCZI0r3ngIZJZs6uJg77K/RkWG+M2o9jQ9toj5B5yWcaH9GaQ9GyPTbarhWNCZB4uBm1aufckkxwbXGwO4vYC/VLEQxZ4CcvbTP3znBhOIuiU08UKDTktWflhR7IbyeW4PDoAHULQzbdCKpmaUDRBE1I9YkNnn+lKgqvBiUixYnj3iimwnt536kKxX+RPV2C7ljiSnzo0TGZHXV7rnmLIRR4+xDsAbjygY1CzXY4PL8loesOi+aKngb4r579XekaDpyS947Dg4kbN4RfNWGnS7fdgFsslTV018qCmjQ8aBBhiA+wNEJ6mpjQTCuzOhwgzm0FTzyV50KA8YsYea2k352Kxi6DqKbHVGPTna8qlMdsC7FmZEDnPo+aofqSBOKJqLFvuIq3H86m2iUG50uXzR6COz9b22f2BRggDOa55KnujZzYEnza/SeVLVR+U41I1yMy7mmxXgDEwc7lYNmgta17oFv2IbxMIWqqIKALpXMRRQcIEWYfH7UEhCCp8FpQOqewh8BCE1YH2xWLb5HrjW6BhpYzurTOffy+PquDDTB8OIwwuDtn88L6M4yxaQ+n6HQXDNFd3i4+a06cJD0L2hOmyfx9m4K08f4l/UsyWTgMJ+Vkx+UvfRCOrK5kn1dy0pMcsTA3/d05mff+YIqvEuZTdzjhpo8uuPTlDLxtseXMsG0LU5bYbvKa0mW1MXhwsTPQsXI8aLJxW3LnKD7F20yoNIWVlu0KtWxFiVi163QDUtIeA5uU07k/cyCLPdySHalOFD9HGSNy/9dLELWqi3vDIWGUGI3HA4OFUFKLiSy6ZzR8Lv2l2nikIlsDT8pXlLXcjB8D73Jpd/S4W0sS0lQZ5/0DEYfdwD08dXBccnHwW9tPHi+Gw+9qaAVTrXN9lExYZQLGvmIQ83/0B8KhClmUnaYON4f0d55o8yNX2/xNPwcdlRnMrUfwRZjDx6blq1Q206GbZh0SS7k+4nHu9pXVFh5UCcBWK3nlk01WvSbFG/KmmIrCHQCi+oRK+tPy5GDIEI6zmbbtOm3I1VXw6qve0sgCgPt+amLIftqct08TpwKyBi0mr1u3QoijeldThnztCF/EObTOZlv3mI2LFxjt95xh3ZqmXYv2v9YZcpNvH0qdapr2yBsUyMgrHqqxttecddWhIKO+KhuD33rLV4HW0MhihV9jEWN+NNn+WgSFpS+s5/1PJRKnDyK7c+VFS6/wJ4U4vsvaIfoQChsr+KNCLaEYEtrO1IXXg3UNfMaguzE/0zOdKiaoDfGdQ38HPCTGCa/IZvoN47k9GMQragnU+dy5VQPGbNqhG5Bs3skvoVqsC90GiRUcPyssOsPklGHSRjBkqb9vr1uMi+CD8esF2ruxbc4o5uwI0Z/iBCG4T3NhHZtW0X3qRwbXKU/xN5Q1N2vS8RgUdYkSYKuv+c8ypUKd1O2HAspSsmGbDGRg2IMEpZLyY78ftlUNsf/mu3VHE08oQYyrTOhV0KQgAA1g7P3rBDuhtwT7I+F+alM5910w8AtKQtWAm5IBV9sQVKWN1pDvVGnOXscV8pLX3Qm94Ptgo6hsdGxZ7zs+vKcGvVVf+jQ8aBBlOA+wNZfTo6OUqsWbdQqnBG8ZJWLbpOSgecXIh0QZiHI1gTVeFgW5d/bAC/Tfcak6NRm0vYFpIRrnUafm+WSfgMv7uDc0xzg4MQo8QgbypZ2Om6zfBhzSrNXgJH1ujlYDH3xSFKsHiqUt69SZ340BCGgm/nv0qRonAWmzZBQwYhndBevN+tiK/ZwqVTYWKk4lsUf1/Q/7q/hMoo/mv9adHXWDDUnM8JeJyBO5mZRjMhjNLZj2Ww0S3UkJHpAi9NV/ZWB8Xbk4Li0NJ6WOTrhrrYPFfIUme/cwtxBvOwRUdhjBsQ5pAitdNukXs66VEm6/fL6HVWo5dVHItQKEWNr0qLcZZV74ss7WEiMwwawEXyAojijbVfJ3P8VlMFk1+LM+wnqvzoeExg6lLrZd4+Q4jib1H6+jXPlqxlxV5saYs7Oh9dnVOsnknK2tiqEelJcvMyzHmrkgrX7Q5k2p7oNLJephBkkA882n+VcogroFliKyNmSeE3EfbmPI4gsGiAUAYbKzh7ZlsBwgXP2KHeUMJcpRV9xPV4p0X9wNM0xE4sL1VStsZQxcPklMwZHykIYjqji7NPt621ymrFL9hV2TH9M5t+vmtddZNHAL80mYWO0yN1jT27PwCV4MrMHNWnk8edR2gHn7gJR8vmShXF1J2MNYjolADtYI4igMS+kLNXqZ1Owm/PSgjKr+dV4l7SMBoPcR+dvP0tb1v9gtoJBJSVYs9bidEzMJBRdTx4379gIVrA1Qkjf1oeoZWiWVNsPe78svKNKAMhzlu/E/NnxcM1kH3EVrmcYmsuDLtimfaBSqnckoKmja5HfqHsxtgy7R0uFlST5sYxXPDShZX9Q4fDX378Uacy491XW5BkucJ1vh49JO5dROeJ47f8Ly6iy5MGBi69xORzM9rAmbbuXajQ0woiOq7IbUmnM0A2BrvNvW7b+WJROk0Z1ww1k9d9ndpO2cq8zI/qQOcqHVpc0WASxTTcdxszxMv4yHH1gOWjbw29tUOVWDjZI1hNgEoVYui44bQns45ElBSnbX6Hyn8irTovOUAFxbpB953QSuhvy70/dZDqC4Lqc5IbGTOXrskViKQTsDSipqZjme3A3n/BLoXioZSjXA13uhiRFWGrZweV5qwIT8Rfiqp0GwnlqZAbPDtxwmD4a8BGBo006XOvrbn31guXnZMdlC/JPDJFmGDuP4n/oNm8WS7d8j0L3MH0FQBSCsIq20ceNWUZOn+cloJHTcZ/3Gz0wwUzbB12mr5tKJt8slqnb0OEth7BycUYbwejQ8aBBo+A+wNQnzbPK9UiwyZs1hGXBfveCZyRaqFOkcYc7tumBOIxlN5ryGK31rb3KXOxZilRuLmr8roLaO/7WL1xj+gvdFoF/+8mqzc4YHztTEhS9RQLclI9CUu8pDWW+Dvw6E8LRTbyoxOcLUmG9cwIW2vw+lOzVYwmUEAswn5z5xR0D4DL7S3mBdRkdtiGbB/KTfFILtcmsuXMKH6TNxUs1apvmB5xky5yKifu0Xt/PyFCSHYPTdZ9wRH5GmmNoOnKq+vVfJSNUdWhjvVDUc+AkkBOzX49d8ELSC7LutpPTKPHc3rkwPH6HGimywihpiKQA8O/Tr+ajBHJRIjrL7mfCZEtHLUM5Bu9qzdGXZjr5Byji+V6dG49WkWvvr6i4r1IuvCMJWA8BPvoo9BmS29SAtJEXoRWa+66/F3WYHPBtqgT3hGPC1J7vY3L1AurOkssqElJsFGgnYX121G7oo9l/R66PC7RKe+LTu8PoAwV6q1uROogUdYLqU5avZ0suvZY1+nGnQEZTSyLe9KPFBaCZbkHHHaLXaF0v/K2GmNUA15B4LhU6lD9GlffckSPG4xAir1b8NZKBOxzKt/ymPN+RHz/zEaKRg4fqbxGbITXfQAcBxjR+FfvgxZzlib1924EMr4O81E+5YOZuPd97EzRcmWz6LFK1U0shxsCA+bsy1XXCM7NIfhKXKah/V237cVZQZawFuunqhYMH5mretQ6S9n34/Gk3ik4VtDJMoAwWWnaVNYX99kTe9lyi1OF8WxYQS1AyUY4evyF1V/EqSefUQbooW8fUE5Bsnc80mGzjkWZJMY3t0P9kZ2RaCmadYNdrhagAI7TcGr9z7Qeck+Zn+Is5SMhU63shaJV2xlFrnFriLyqxBzhe4JmIzlyBavf0Cmyizi/HhDWiUqq33rExalFCl2hZO1kr7Hj0FsHnnkV7C/fTdu1G5bPXdDpUKTSPGxHZxtrzt0hyAfbNEc9hMKOhkhBDFyqDFr+esaNQY/oxFLpgc4c36x66p+0Z3fcuSh5JQFiTNsp1+ZmtpbxJGQ7Slh2gXJchsHxTwArYb4Jq9wh4A3wBKJw2dufB9IvfFWAqfIbkJA9gCkG4Bq80oAkE6zm3JazIAhdTpczagS84U8VFb0THaqxjEJqJ7Y5pkYLv6oGsI+q8j1jMskguErLz7PKUkrLw7Yh1XAdgVOizZ3ggHwG5B1rWPHlhSF5yqz6caoAHJjErAmQehFtR4dTmeSxRMi9ZWa73EgyphuB3x91FDfymOzVyGkDtN2gCpSKdbKjQ8aBBsuA+wNRicf8tJkVG7lEvTBhpQjnQSdkhcK+qzvE6Q+UZpUXx+IicWnBvnn1WZqMnqCdmKYtPtomXwGsKjLSeq++9QDVoL47fzvCnHZgKs5XL+T/pTTbLhZAcfJX9+zSvtaX1MILuUoU0Bu/hXXC3hE1lJNWM1ts54naUBAYHzh7ti77wRluBsJ6iw5AKHEFOsHnn19N9/BxApjoBdsj1iQx40KS6KJny7WegOomS8bToxWUR/h0kIkRiqfh6YLSInkfRKkO/99kH2h9eDNmjzznhkKXyJ7O/6eM8EdjgbxuAPq+nNBGlhOzcTrswHIJt28YwIDM4L7PlKd7a4NRPKXHSth1q3cLTYHu1IPy1iTLb2zkAo9Lo3toZzkhz1ZbFf/HmgRb2T6Nf1AGJhg45ODk4wyfxBplRxM66QTFLRx+0BtDSlGlUwpX51IvC9UPUK1Agc4ZQyO7XFN4P1i6fx2pQ9W99XSW6Wi+GZ0dd3THZOc6lzqrI3bkBdPi/OwvmH1lG6NRX7wGvhOOkkzFBb4QLypS3algOM2vGPQf39eG2JffOR2mVuE+U9r5I3Hi3TRjdwc+4QI+GbmTWBU2rOPfwRMZtCD2D1+sVFwmI7qJTu1r8lN42V3CVHhc9XYWeY2lDioBPhSz+/pAZCkrMCyQW/G1hpmLPSt1ZGCBGfb+6fiN3YTKnmusSaB5M/IUy1+7fBu0kziNv0jwUmSjxtCjIJYwf+Hehjg86liPGLwKh4yIZDx1zhXXVTVXckVRjlMg9kVecg8BYXcu3O4J368MKIceoTLT7iK92iMB1Mz38nhUDhL6cy1mTg9uqX+QROyaiGLnN1zeXvgdYpK/f/Zk3p4wUf0d5IpsD3IbPFYQ86PulJQPnHEIgMGUyXRQt5vkwzbSaAvAciiVe+YAMqxOIzEF1stiMD4c8TdiKvFVETQ7bI9x8700opS7Tj6N//3YUhQI7No4VUfzEyGQYd78ZGEKSKLt0ahrdB0J4/c17a0QG931FsSg7d894gpe4+guNJUVk8mCt6td9VLqIP++km8LSmffN+qsbVibaHhKJmclPCZ41Nb9VWjhivt67sDV0e7oRv9a4eimnPqVWD9ydeYhEaWeyRn49NtfalWaQmtRH2q/3cnb8LRc0XkoXId/999U0Pajw+ERy7+UVNkMWoMQb2SWp95DzoYy7lEqcz/mafXWB2Yey1UdaHNLZ/qXJkJsDqLOoGQEyniY8/wgAeyrd3wBQUQ7P64Cvq+8uCUAqHhsPGO58yADgG5FbbNEhzCjQ8aBBweA+wNTq+zZPwObVxf5BDp8n6DuTiiYcRiwBvVQkactf6fjdUfXHA6C/MPjIabQ6NagBZDEq2Id7T4TjljTAR1zqJNzblet4Mbp+hJOZPTqYEVyMnMjB67njW6ha7SpzAMGu8x4EWTcDse9mYqK1E3XlNbeC55vzPKKIicZrbV6DCsOj1x82Bn59G0MM0WRVCDNTBFlct5qDdZSbJSOSKS1OfY1vnpGPdyhXdvNMmZBFOVCx29wAFi/h/DCaI8u/EkzaUNin5bSLe2+VOgnbqanCfd0UVOw5DhFqekB87eaOD5jD19QTYDDIgFebUQf5JWBnG3YzGg8cxb55cjYzxcDMNrAZcXuoR3Vt5UqYE+TMh+ZyL/znsJGOJ9PUYQZboS9cpfcbrfKGCWFaHqKIM2GUUQwNyBLfeWRFgSkJz2hIHPQcVokWsSnm3OHc+IUyVo7Jh3alPK+Q96hM/c7Z5FxqNelGLFw1wDNf3ZkW4aZvkF4a03/IXsOXiz/yfka2as5VGIuWzlHHbyeYtwZ2WP22gQ5Hnr1RJjfejynZCUVlAbfrenJkuugoOQWM8svh9rnzuNk1b0NNvw/zGuaglVcdok5Dg2VLVHlUKaOFzjyiZntdZQ+5PykCgbtq8rXoc8iFdZXiKgi2xFycF0Jvju9E94WncFhRa4HVxNOKd/to3iJNPdFsrBqB1DJvx3TbwVUeTuJ5ct+xKJT/DJDUqSMfJJmpqciqbOAk8lVi7/h2m7/k3hOSy/y0ZV5CdqwVW2BW0bXPwtJri6APMI0Wjdf5yP4yFC0Gj8ndH32WC61lTLNV3InFdGXSp+i+TtEhqCLnb73nIpGzoXrcsL5e7z+ZbLnUakxGrgtbt5Iou14ytDFW/Ci4bfvwq2e/gQVPNWXYr+4cBaok1WBVX6FFRcOowSPu49qZbOQCSb9kh+N2fh80MAqLFKOpyAjEMV7iH9U/kumPMpFZXQjNkI21pWaNWF6LAEz5mGQqp48pe2DuBlM2noxqTj83zWi3w5S1rGx3UInoYvM6IGBpOViKUiGYbblZoVIcPU8Y6R/fGCzznVptJiaf4pHB7Xo/kyryiHP3S2V2v850O3QTOUUZYYnyEKq0I6ku0roPbqvOYnjxbr8QAfALB2A73qRsXrhy6SYhDRBBG1+AuhPkNBboGHS+uQncsxPd8byoyNym14FLf8j20vEszhcYkyWvmqS7fspAipn7dmFaB9IZ16t03gR5eqIQqIEGsEoNN5Jqs+a7+fim7FFFgj8EGXyfHlmZNsD3FujQ8aBB0OA+wNZeWfjsn7AP2RQw2OB1vmHar5GvqvDWZVBPK0HdoV3toH+lXcKm+00eiJbkR7jV/If2MZ5HcdV3m9yJdVyl2vbX7AwYqf4d4D9CIJt8ZvrYBCGjxcAO0PIMgEl32NwVag/V8jD2VTlQcoOAZ40E/I5t1r1ddCps+PReuo4SQk94I3emIe9UulvAAdfadWH2P2GsxMsd0EwLaO/IKAuPY/+vXznVbput10Ub3wB0MhX0qdKnHMHp1h/qSy7enn4j9UsQksOq80tGDBsT52V1x1a6K0va3wEn1cafeiwGXi+whbdw2M10ziQ99aN726JOREhkGCr/NvjQoAzWw6A4oLV3Mfzu9ks0RXrTQiVvg0kwAMmqZ2kSZmY7Zn/vkubvj9vv0k+8PnwSsOdIwbVRT4o5z7gsWi0DvJurev7B15KDlo0oLzViLziBdn4B9bVytwcj1R3rfok7JaP+dSbPjD/whLfskf6mtJ9AVOZIdSbijxlPqv69i0T9LPbm9884AQI6sLvx172WYj2IETDfZrvM3Z396P8yn62PcLp2JPTGb47S1RXcxBClayM0FZb54p/eXToSsVVNEXza7tLylM4Y+IMrW/5h55RW4pRmZTjPMStldzA2jSeQZAueAwdxNFWe39YgnesU2WjJbQADh8LhVpRILrnSVMn/qiuWD782YUZWN5P162ppO6C1k0b7OhD4XEDrBlVfmUu8tqMswjckd7CYttYE6VvaKzSf7iCZZvWXBYSi0kg/pcmabHAcqEBbEkzhjyLQu3ePjGpWM6JGn/xYwJfqgevi017TKQZnCL1jEjRMxKdvAWSJcPzob9fKlxQlG1JA7PLXemTMwjNUfJ9Dfl3La+pfuzdkwKWdLRyr2Yje4trKw1kdhAYROUmUepgsgfLNTTCN7kpfkgt985m/7JTr2auB8CZkmvc90/kAvfikVI3mKhzv3MlQphTOufVAZZZb+4i+xs89sK8AoSAhds2ej8JBecOLXi9u5yjQqq1SD+zU/Cn1p41v+4Q5W5KvdGTDh4foGMsM8+dlExshrLGNuSIPd2MW2xovdMsETN78Iltf1L+WqjgzhD0MNKl0GbHVErwfriYilJ/Abi0OGhqbT2bftyt/rvFSZzsIxdi8ZvRjzQctsA7OVxSY8J7R7P+7P8T+cluOA2DLAX02ll/An6Sm5zx02/OBcclWcCaXNDXBD1donqvHvyGA8eeiw4rd8Dkqbm3uQe+mdwD4MZj/bg//kA/uq5ot9O354zx4urhLvInFBMmEIyjQ8aBB3+A+wNTwPLEAu6ALcdub1E73KTmZypQBvGQMK2Q22wx3mqqRH7JChBrrf2piBPyLR06FYf6MqNcXmhW6RwjHnUDMcX6fSx7JrxcVP3YfohMmAMgdX7YETWDMeasoYBc6Pg9qbMiahnc4tdSTqknFh6jFsZvQWrIme4dQafbt53/J1lCBRnEEn7fqZiwpUiU/A82W/PshlNXk5gutpbypU5TXajgrG0RK6YYxACCIJzL1fiouaYbjhr2pxx3SO15Ax7xRJbvxVnoNPELPLFGMPRJhtmRHxtL/hsyBYFUgn+LAZ8gtplg18S+U8STvBstNcJWu5Y4tvatL2JvpwISqLEdgyHV+GfsnB2i7bWAO8e0jHprcc6jvNvYDhvfH+4GXxVNDrIekSY6ZfyxysYu4LvsqofluS8jY6EySnKOyr1iyTYhvEUEvj3IgMXyMevIn2pbvom2CaxALMD01bG8rhAa68Q1kiKAuOkD4g1FNM6ZkQ0ANC6TPj++2kWTnMurij+3p4vFiqNSgjtBRM6TgF6RN/qYIL9StHcIBfA4GqeM0VoXWxeQzv9Cc2eGse5HLpz//AnHSahLgr7dR33oY/djsiFxCUaP4OVf/DQPTgf6mUy+U1aiy1HZTnQB9GH5sweiTTPXgYuF8pbpYjIKR4v2IadhcAPbG0pOKyyFFHR9ryKCA1d7D4qTlCCQp09/iwEIEyvEpbuKjH2B/YSf/R5NJGhhSwNWM/umFGVfLofnkafT1VVMqTAoeQTJEo8uuTorom3xgW41/Xng8kRW6Hm8hwekGKqy5Nrlw2hJudXuIv1ksrXduIkkgOXbepxmlyezmYRiwf23qcM8CUX2B/SC1TbQUnqB74aRETNDcgChhDQVHMV20r/iImbq/h9zOA1AJOK60xdl8Gdv3i1hZ6rTATbOdk/BbfSDhjDW6ycqQm8XEFZOGHOaSuZ/io7u4RWnRJBo+yehRycy6tQq5KSiZl0VYDAYMqIxo17dQFfzbLS9J7k8G7zfMNQwt9ZaIX05tDWHcmMkt2AJabwGFE6PtJzbtd4gPOycPPKV+vj0Fw1ekX4tM2ypo/+/N6YMxEHHPhkGhC8rvKSR/8Ff5XnxWSW4lQILXyPRB03ogFHtctkZrl7NgQEIL3g1l+MCFbAR652yXipvYh/2/Ak7XG8i8r7chqkFEWjVgE/v94F/jH5UR/WekjBa1jGJSXRbwT5rDDF+1YD8eI1vMmI6qyhvQauSrvpTQ8asWDKsrmI5QKj/Y7hkJLUIpybwkgDLI/HUoeOjQ8aBB7uA+wNQzcN+LHPNCC1zKm2EbJd81hSJbp5EUGFMBs6gKwiHDopd83sv61XPYar1DOcI8mi7Ggvuw6AXlLjDP7bEqwLyY5JmeSTPJWJc106GfxWfE2B1InwkVwS9DkcB6ADoo6u8YgPth9uZiDLIljCqpBHPdEDK8xTpAGEPC4D/uoJMgqbVE6awrFa5soWolNlMM2F/GjFMtEGltbiraLKtMRwSLLpfJ8zSWrAd2jxurXFBqLmnKH1CZp0hxorX8aaM7Q2cKjizjYlXaPHY4ANB92ziQY4E+Utijt50T9yNEZKe+YJwNQ+6SmSTitHZ4zn3K6UI9OIyVK6oxi3JBilY2mT0pLHyeSLNx+DAXR29MeTsAMwsZNMionXqgKEiD3nv5xk8ZOU5iD4buvVPsnyiix2SOlAHoDa3wXLQh5DYwVovA1Ie6OJzX2hlM737E0Ob1mKnqwMu6dSgnnMk48eAr21s23f6ZaGfyEqvzEnqRCqHy51//3NVtJQnzmXNWvwFnOunosI4eL0mPpWrpUscRkm1TrPt7r2KqakGJ847oV0kLMiW3ldBrV7oujxztJ2/FKXWFUgkHypAyuTr9nkJ07iNBib2swL/8IgLQy0taG285N6pGon9E8xIBXHdmaIAJWdKQ+KFfLUqoJUQNA2CYIvaX7SJs1htUcKWQuqhl1Iin+41fNCQfcd8w4LYWk94Vthq0FkLa4nJHMKdhnfyYNihkNCKIcGsIKwok27/djTyIZc76NgM+PPtt3FDQIyWnD0aFuWuL+GiQWZrZz65jyL2Y8O6k5GG52mi+tle95bTHyPwryCi/DhDGy9KUW+bXTEI8eUwJboKZpIoi4mnV7TwWnGAVAwPqinObvGX89b4WA6xTUAuFfHkDMpjVKfAijEtdUshrpdyb2PG4F/EaOG9bUIb6f5wjqgNYwzKYJKGbROiQH3vPE94auVyTQ3RJOOTJUMAgCv47xMGNM6Vhq8rbdQY9CFsLWjae0wIIPjqsRuhHETjyWbpyEM05gdchFtupp07GD4lixXR4f4Kecdog4cy2Fvu6X1HDvHYPDxFEFf0KavOI3PKYxDih24OzZr/TP7OCo+eudsFxHOuFKk38zUveacNNlEedpCXPA7yABwPADhDC2gL+Y98e+wRnBTB5YF0AruOn5I+iFZit9qIVEzdeFj664M925NfbsSiPTMa8ljCSWlrLTTD3Jn4K6ZfIqxfqqqhbzAs3w3zab2hqSNS46n9nnHs2Im8APdDwOhFZL0qJECCtPuL2tJMj6ejQ8aBB/eA+wNQqvUOCB4HAA0yWS1WHKlIoxjEVel8QTeMX49yLOBUQFOmAQzIfFz76fSsKCbaj4AWZ7GRBJW9I03O5rSaCOqAP6u5ak7YAjW6Wl3KSZwq68TFiAUX44n6iTEnGLu8CBch6PgEMl/A6LW7y3flPyDmH37wZ9QWOtlXVkl2AUDA/IKaZqhUcHQepm8chA3sp9deRaX3+exs7qo3PkyNjtGllloB1Iwky892S0CRDLiFQbYdD9IXXLdhICvKM8GhHKiAy0oQSPK+cN2cKGF5k9B2aYgzPh30fQFRP7JxqtsFtvwrpepEFMC9qFiMXPM4AnsfSDkqY9KXr8ic98a9sagpBNpRmRa4qeCg1CX/vfN73TD9rzzyJUTO9/i4Q0ynQ8+3C0ABHRROqs1zwtMWNiOmhdW24K6vkvFgd7Oemg9I2lHp6Re3qOjY2KIF7N3eO1wgbs2loUieWlZ4Iu0eYwc1mzyrk0ux4gA9/zESTWhiMgf9OJvH7z2CyvUEOy63RYmKV1xunE/bnNsEKOMLl75sP4SfTxqjjxkWbWwEzHtPLSiKxkUsy2hDrAGMzLYOO+IRzZhCeU7Y1lmmvH9lMt5qRb2jmpHrKnlw4wpSd5wAkR7lapSmnX5+b3FMc4iEL6v88QrDfFBIjGTQv0MNkcMpV1c+18k6dIYdl06cigqUotnGLBP0rNLLNaYvwZ12iBK8rxJAu7gEpWl4pm1RxP7QBlXBinha27klnvC/j2fXi50CBFG/AhI/fqo0SEIC2YpCQTov5hdgyBGvGY3x78o5ue/VYHusFLFGuXyh3WgD64eVE7KwdcPKjqk5PF8YN9IyaS3k12UT8LGMJYiFlkngUf0qa+gbD1t94hemqmxTrwbXeAyMGOfGP2QLh4enwbSYA1f9AdHKQ0TrQ7OVUSHZcwi27uqiv3JeA7u9AB4f9ZcRz2wSB+Vm7li1Q4gP1Vn4eFjbF8wFPc2Yyig7X3fHe7unDMy/M/DOHFjr0Bxp7KZU8UScfukU4KK/t0tD6h0phAJw5SHhiJuOy/us3+cFaFT8ACiAyhAX+3xlwfYTmiJv5V6OS5aUtxqHrZ3C2VUGedUo6gFUbh3GjbPal0eu5CtMf+fFqttsS7MAzSNsa9G2wLL1roEsvB0a4tHCmnaxzg1RzRKzoBmMq/wLAMRe2KMM5KpQIWZ4Qw/qK764sg7n9/bsGIYPhffok0y6R4+rlV8V+2IV7wrumVO/swAxOlVcswMM7fl4utIk2TK35EFAG/ZBC6Hzf8+DKoIEKyWjQ8aBCDOA+wNacf+088gTIVWq+TYCpRJcrnuMYt9SVeFBRDaf8HA1KVSFe6tX9WRRrGvhBN/SJ76IH1q+MBR16ytmr6EGE152A+dIeybRiFf3v//crF1EFofLCGUAm2dKOWScL/3DPjkQvYO8Mds3M71tEvwb1zHgjMRd5F+7YstQSdF0FV74yG+JznNfFQqcjbKnktEWWZ5zulv+nRJKxRoNuvhQygJpanjfPTDyJahVBYCVp+kgyIQou4k6nLvO08YK/ywxyHPVaUk2oD/MbBfJiBgq5VAMbjvbF/6FIuBkYhSA6VMjEygPcCMbgF2AVne51UOxzggIm4/iMMxQUK4dZREbZIF1M/y+dq3rn9yTKZeBdhG4HZwto5KPYWu2aJUUNI0w1dFyr7LlHimrQi79CSQHzad9POcw4JmIb4SC6r/bMBiQnlO2pWw7YTu5QOSv84qZMBiWmXLoZlGJFa5PRf7we06IP0RAp4s/MWOHkwGyKDK7Z2fBWWBZtbwjdRTllXcX97Z28zIcjZM928iVAzUXrYMJ0aHqmjI88ZfKm0X5zCwVkDjkd5kyfoC7N9e0oJCJwXUtF1CE9/DPh06yuFEhmmsw2yWx5adVFz1QaoT4s1i1kkV/O0jJ/b60x/6mKVGO4OH9So1a0yBNLJEXpVZssvC7qMzhyrsOhJPg+7chGRltvbdG1TBn0vSX3FrI30PHs8FR9hXEGvOYaeDzv756ZXC7u76eZLF2ZytbhS86fkv5kiKfPP+hkyPmQ6aX7v5N9HiNoxnbTrYCd/gt11sobaWr4Kng3q4nM7kBStsK7O1uupeRWEgpWZ01A8ItNFDoFOE9iSjgNcF54YPHQXKshCBlUftD9NcJornGO/SNPV6v6P4SpyvW2sXE7hHzwIHJoMgxfbBGOtwAzo0ZUFoA8kYuMiS/E1g+A/K1k9DPaAByFEkavSenE02qUWmTuxUj2FO6cF/7el7QM/wH56g9RwGd/05of0eTGUONBMUBMCEmw5Hzi1OfWKHv5675D9UtV93DWFCYlajUxleHqbNl2L4nKaaUotCCIkzDasIAzfTduYkeiQvkgVsxKF0Y37D6r0Jsc5mL2h4bGYY7BctAOw5gGGMFmQZXjw7RgRXMG3zAvU3PXIOtPuuOSHYZ9PmhK7OkQGX2omwU+/sZTevXYzj5CEBYc7gJiXzI19N1M/+2oMn3LFcTB4WjL6C+EyQzmlhtbSKJ2VLdyCCMQYI5Z4d9bNlmCgDIQwhMFlii9b9w5QYFZXY2oU7zTXrL0E26UM6jQ8aBCG+A+wNECuepczt+luVsoEyVV5fqbmh5fYxkkGptVoumI52LIFg4Fo1bABtitqT/X4jg2iXur4JsvFM/zn2jnnL9MkL9cBaMQz4LTSoMopbmRaqwVDaFx9yZHA0KYVAKZb1jWEbbwmGNcLA4lPQYmOQbgszS0YzFra4rusrugtB+Ni1nnezjNY2uCS03fnHm76ElsPbhnPhMsWcaPINtfWNc7B8InvzdUwpyURjqZDdyuPVUnmpx1umD9rWrFTrIf2LqIC0TLM/z00CSzJE5dlck7wIbnurjt862K6ueg0rUO5QZlgP2LY8+V3WygSczoYj370AQVJZxiSecbbyJYbm+xFAjSpqcW1/C6FQoUGwXVuQYIL1Exuz5oV+MItMs5hQog+N/V61v3dFw7oGwTC6E6Kljlnf/gw9MAvHl6XV1I1r7o1lX99PkAtWHvgpyHQnX/Dc4PVk5r/6+x1kV03X3z+LemLE+uNmHBlMHiuIl3oXnhDyNsDzuwQEQc2COFvD1bWxY2QlnkkSbbj17mITLdFfGbkm6GyTztDA6cdUBnB6siQ5gC/ewi1IfcASllJhrblJaBRfA68dzABNq5B2JBePMJVEJwTNzH3jAp26PLCPL6/CM3erJY37e9dkJzgc3gkiEYNV+05zLdE64Wbuv70aVzYaW1WuPhRC4xahih3Hb+ajMQABmDvVXCiJK8pBVYsNNj4J+1BjGmy78ud9m3vlvFgxM7OXt+N4YtyPclRc7kqTMffhe1H90qo7+zfU7kRFR/AMQTiWE90AWtduucOjM7EM99S9ABDd39tHxs6gZbaDPztcUVV7KJzTrMCVQB3giV7asu7azgE6dTW2KdaByQUOCQEUDvHvtgS9wyHQbX1gzve7iHWSDZEKs1Jr/6+twWXSjnv/C63fOqzrUpx8rhDo/EJ7jIqCYIQPcWhGHApBdBWsCLadqOWgAV6UN2AAYWiJkT0U3471a3VK6+YR9B19nGyq6F2ShHyIW9MCMl7nNCxFh6stbdmaW+/XsP4M2pibeg3acCD2MMUtP+YBI7/RYYO//qCHavlcQ82s/gP2e02CI+ud4wB3QA0xOunq2wwiX1jNTEtANUZJin+OpOI3uz4dyti1gCoEJGgzV7qLN4gtORpCkd/dfJZTYh1ikl7+QAcATPpxgcS60lcs26mcvj25KAJvUIyKcTK8DZ/OOP2WajaMSnZsO7L2C/4NkPpkTA364PjGRQ4bhTRSF1lhAg50ImTsELATJuUIbdyrsDCZSdgN15h2fvzD789mjQ8aBCKyA+wNZwWx8Ra3+SEETPTL9GEPFwcj24xRSzV4AnggImTB9/bxqcdJRm9CHYtewZp1klSOMlftB5wuVVy5MN7scXkhWZMEWGmwc28RpwqcuXUiJBUhJD34lhtFUryNpyTkr9xAOW86UOUseDNwICb7Wey8op0iqBwS/U1je/mQqNmJnvE7Io+KN+JVT+Bu/h9Q65v8L7s2XXo6OS5k6KWd/ugbOzCyp56TmYaVc9CWyNyD0F3hZnO7rbAwBInlpKbMXC/cXBr8JNOBfyOG/CXvRBiibXSm2xFoV1mVLYZkUo9yvenqAFoviGVtjOKpBt0482CgoDEZvBonUR3vspDbUb8n/OT1JvTDJPrnptgX79qO1Pi5/Bksv3tWgWcnm6kz/v2dnp7cNlxlaPofJ/spbqxZY4Uc0a4VltnNvvsDfA3po9VHpCLUZFQ2dbOw2sUmfjpVxIQt6Wd0WCffw5D25VMDdH3MJRwS+sKpwI/Pnw3XWRLc20DFQ/UfgaomzF7V+nDlA/zHMxxJfXB0881EnIUYhEkCT3rU9KQ9LOOQpKVLYUzPns9RVTkhOXatdbsRDv9LPXQBve36SVifBlRITIxh3FGK/DP2qigr95G/97BXPydyGyTGbDAlsPiLQW8lhCJjTEIPryxn7kOZObxadPCENFVo/tAKHuom9Qg/kVItw+ilGINy7/3/W7T/SKMu1lw5wRB0A16/GeMurmdm4zlQqa3V5R8YeMzbNVMgzLFMQ4mQdA5XqfEBXAY98vxZaoIE4CEUmAZEgTXQpHu024rehXMyOAeSLJFCWozyWaPgN512me4Zu3xSuhKhL5geG+cd2nVvE0tChcXL6WRr728gXWiQ/qWz2TnI4COoFIsDtO2HrUIQVxN8YwyFWupVHsW2xd2jlQgudlDqun8B+BeMOo483w2x0SEJZZRMkSv6C2hsjMDSfSoDvcROqH/waMVkfAkQ4K6fEY0k2YAFa0c/7i6AED4HL0gMvQOOvu+XLXdj7AuLz7rKOXwJ7N1THnODmBO5DW+eh8+gXBtgbjPph3JseFgRNyb5HJ+4gCt8++cbQYAA0VDkNpJLFA0ozb3lg3bC1/HtQCXL+3iEayx2o/xSTby3Ga12yFfTcOL8jwP+6pHtkZ76lQy5UJ2+9x2b0FLjExwQkBL3nHb4q4a6532k6S3KXyVwHiAbp/VcQFU0jMZyZ4k6xA3wG4ryTfQBsFXm5S3uk7he6F7a0ZJzooY1jr4PalK7HdgfLzbgyYVlb2D/fWRBzfHpIXadKOHajQ8aBCOeA+wNR/rzelo0r41yzn7K+IS2UzwzOLZa+jOmeWJbMWh6XO7q1OtMy/WEYU097dwpEE+SSHBRTsV9GT3/l2rmyESLJGyt5OtIBHPcrsB/90XzlUKu91OQjiNRwMuIlLw/+4pGXMrX85UwxvuccBgIJB584XUchrP5pyykFGrXW9Pf2zieUWinuN90spjVK9LJhhTezc87aCjkxM/5asS5mcilVqQ59lwr3vjwSO/zn1UoLzsIgCtDLAHhVbq5OJsLmIFxchxALnK+FfMrOxMZrk/iJFbrZD+sOHKkvKvxYxWOXMkfJf5duqshk02FYZNncQvf+jdl7EImAZNs3XmgLTfPzhogZOtKbpKbpOAZVVJ02mkchxnzcidtNpeWsVOBbCyRTITn4SzwtsnKoai8WWU+Vt9Gmca4wxvbHKtGXf5gBjFokIXeVcBrCW+xPKvimtm7A+wqs54l1R16qG3Qv2waloPP/WV42pTM42YQv+tCnrruYY1SOHx/CJPBtVVyxzU8+Teesa7Swg8tkumMHMLBpLkImfYNtQAutvZEX3Fme8jX3PSNThmLPrNq8xpDBGgjiS3WsCwf1OmN4dlQTUbdP/vDKLkhO4Q1dHXkIkak5+sv5c/mj/wx1RIYxhB/YRxu+XipiUlFB680du9tsufSktNjeNOZSCk40RbK6Kv8YBpIGkxMWSnlV64rHE06uA9A5Df9eEfUcTeqqZNJWhPvY+ePnMP0q7s9SFB80LaTzvsM/x65LNJU0lgpPZUep8jxkYuTFpyhXwhgUm68lEzuTL5oPPtvjpyqIXwKtBjXNrtHSUGNoJVjjOckkTIY7es9b2P1a3ezrX05aZGRlAyM7Ue10soFFey5YbzNhSZyje7aMtetJTsH/aqiorOdDnVrTXDQ2KyrlYrWUVY8KYPsL/2Zli5/ijk6PwaDPXMa1I5EQz7vXC8+3SYKGaYFrWaXSHs1lnB2j29xpLCILD670dHfh6gqGW7YkE/+3Qzv/tJnB3FN8j80lgxXJmMx4EuJzeNKZLUFmUWq4R+sLDc/8mFdV5+CpNeYM+Z4MKflMSo96In0eXdjORzBEBDMFdWmRsIogWZJXlf5a2obCD+l3cjvQm/FYrQHZUC/VaQqIeuWxpklPzYmbcBPrYfXX7nEetH+4hibm+FTgCOUWXxTg7Id+HV03swD+d2bC8nXDKpEAxgq2ycN4j7q6hu+a3kFSis6hUtG/W+yjGztcEhoEjOtUFXhzFXeGSGT5ajbG2IIxm3LZztWFlSL0ISqra6mjQ8aBCSOA+wNR7ybUKi+E4NjAbhx9OwBvPBd63HYrSvcS/ZJrcS+eQl31PEpGLrBr+IbdHdtaQpZppPCSDu8J063sDbMoVNKUSA8OyNcnvqqQHKV3X6Qjn6I+Ax57ibt0ZEgaB/7Ohgr9eyy3lbfzaiC0MufYmwP0BJcoAozut/BF0yfPiCS1gxIpEOruChSMtG0/oGZjKkF0enE1XpiJ8lfQ5XyfVZG9httDvF7YZcUGNmodFkslAaTnbAEW4y0qbcwtZW+4Wq0VmwfJ9h3a2ODH9SFt54x+FDsWPbt0nryi/kqR/vWX3V7Bcgn1byoB2OIimW6BRy+W8MsFXflHHYmL8bjP4vzfM+qujUB5D6ZA/MUOBNYZzHU6a+VX/mQ38U7EbxwocR0hbVKc0kwm4T2wSFGJrMirztGg1b3VevCkErp3KgpFClOwJ1ceklvTqIadIwjVGCqdKu2zrdX5VZoWd9fIz4b6AJscQjIEkUUSSQn2/NCWg2zfbgw6Md5l9V2ykTOA04EEXQw+KbWSdQOdYkEdL4vVggek0OW8vbJrb4iF+FSb4sQQ/sGoNPImQh6zCURrO8JHTmUNMje2ir1S68Sj2ry+d2xqk0tvmkJO7FUvZOz/DlntdmuUjhQVyS55y/R5uwtVoOehEzS6u4Ag+nd+bHyMS1fvOVF1Ruj0uyNcxCNuDoF0Z5VeIUpGRqXDGAzcS08nmgAB6EH8bym6TyJFmQXJWWkhUi5N+AWKA0LLwjK7awh92XsKm3UVPATUCvkUapu1Vp4gSy8dxFTgN2wivm8gXIz6u5eRJZb+YKBf+L3sSGaw3IkzFtpcLdqHoM3A7LODXsEzupd7dJJaLmKZxH09UnzV6E/h60HQcKwydQvimPJLsMGdurg1cH4WCXEV/PM2lJB2OLNhGLy++KdjBwKc3eupfHSGkbC4Vl3HWLhh7nPxnvJ5QFt9lE/DRLP+6C9UYJKN83AWaz3QZDOQgMqpWdLdIjeW3GfgN1WaQKyrC824vBeRgHEFyt91mlTIBae20s1NAWkgUixtmA4nEX2Ov3Swi4mC5zAkJLNjrcqLDEDBntRnxvJCgm2ObEc79/rPx8T4WA3h1X1/V716mavn1aiGTwyoMWTKz7K4XE6c5nS0T0UhtgaHNzxi4JMMLr5l4eHXv0LDWvdFr0dKfj1vWfnyxv/0DFNSPAclyyVSVv9vPI0Y0Kg/ZjkYCwAOAP6pOqSvxdvKtC69RvKi8cDIetteIszrU1raumX+1DHisUzrm9g2azrzwrp/ZSOCQaajQ8aBCV+A+wPwUFaGvUYY07lYMTtV2GUZwcBMLIDSeTMjkbjV+2znwxM7si1GtxOKYGnWvpgUmbFjdnUcYJNNBsKefN7ar0t9Pksh50mqj41mCBxIwr+0ZiJNxfiPAZNIGXGERcbKZsxN/T5wTvdHL3wiFLRqGg78XnH/yrysa/R4tWEXgFGT5FUGMN9m6fE0x1Cm0tLpX0BBQFamcr45Ocettqb+wFv3JqUsQ5NtvkEPBq6bjpYOtuilZGtSfqIWVVNoweqkorBIdOayh8payLuOc+7kncWyccWaBuuCTekPhjer322ut62us/XUBtl5wjPU2dBMmJe47kX0IB4MexlPwWWGT/SCBCP3gvxV+Yj951LOS0k5RYgSevfGvG7LOQXU3ZhVhuMKJlwSlVzNJMMYPegNI9sYjUGlBcmHOnHKO/gyLimyP/FeGqaYOoLf8kEVa2Hqhb7lUZ9+wHfrZB4awa/Fm14a7YDu3HEbkFjy+nV/h7T9TZOHooh9wTpSOh8ekCmmICSb1jKRVfQ850ubQrYd87MdPhSVk5r8A5IhXx1/MD3S+/R/gY/3w43e7OTdLTvjALKjmi3+akJbC0mL+1Hr36KrBUxcU0GDFYApD7suDsUFXjVZKGmLUHu2FLg46WN/iBA1AM9ffENFuy8fn1BsYXfmYjgS245g5jsXzwJQ9VKQ9irzbMWv4PKy3oXsbaD0E0j1RvmP0XX7SRiKdI8q9c3Scg/+mNyEz2zLzATHPitvtQKx+ZG0z1aGzZxj9Z7fLIB9GU0xTUR6AxBpmhSkLNbYJxjiXJP9lektlr8itIpL4RfKaWJlgcF4asy0oGUfkHW2veorTOBJPNdgRWtLKDIhU7AnQMXMPJBH8HQ9loGPZamuq2iU0UHmrEbrRFmrzAJ4cfio7WYKygdkNuX4KIh3baJ/CNkHflxZcfl8n2Y+OayFMciqYUXTS/1ZDOhCjKHvkBOorAjN1wK747FKmEJG+V+rYdJhAVs9zfGPAFhPh04KdTTL3x4wyWv/Myx9aS5BLDp4DHXZBAv3AyRXXsSoQ1AYxfYZEEdh4iF9Ewx9vm4dwls/LTXcVkzddGEcXDxPY9XRVj6GwRGcWo0zWLmCsq8qJgJSQZwT+oN3LfuytSQMtYpbMg3rp1m02HmPR9dMitT4U0hixgCrMXqj0c+R6QXn1y4ZG+ewpM7nd+MtytvSM46wQQ/hpUX1KPc5q4oWvz1mbQJ7f6bnT4cvE8zp+PEWC3GMKqp6Szu7A9sbVfkKo0Yy+IYSsysRnYuCQAmjQ8aBCZuA+wNZzI1UetEuoWs4DISYh8V33rayjwK8E++UrT0Ky582V3ZPUIe6gQsyNgQmxQR939mPYnTetlaaIKnzIvGrKwwhMt5VptVCvSocmc5cS/JJ8P+uJchXo7MJ9A1WuV1sVZLWXRvgLwInkCpLtuIPArVkbsOYXMRKK/HA9+l9bOXf6mXrEBIunCo7nIXxLEO/mO9dQY9X+1xe9LQ92XwJt997jChbRWoKcE+K4lbF+Latf10gbyfd811cY0zfhqytkiikkPr12IcJPQMVxTgGxTocHTS3DLDIngo17aIcjCPnD3nBP1ajauwIh2lfAgqQmbd0Lf+Y2e6reG17KohBczXzW3fr9VWCQhw+/XqeClU2wwjw4DY6bRniDXvM18JPg2/9FwH+NGu9ob5H2whtI8/bnUBuDi2mEeGky2e6o+3xfVPs0+5uiJ+eWU1rL6heQodHftUZVTzwMLD9BYmFuxABGJs9stgJOfhoc3mmsY1hyz2+AR57/d9Xypr9W10Y05aUAlXiAHIzJsV3GqeEGMOTbMfXUtycbtQ6XayDZ6kMBK7DJJFPkx1HC+45kjypsCOElzIJcVNCW9sD8j8Lg6lq3XtWAgwjVRMC2aLkvN1jfTazlv43RHnNgPfRzD/p5ownPpxlREkBuvn4wMd6XMRaoB1/TurV9euEoCzcjVKCgw5s2RCnleRy/ukcK8chi9fC6wtRsiZNc9MxB6+KBoguynrvvZbcy6FVIkwfilbpGyhkCcWi+0/FZ6qYgPruBLmIWlAw9qNKkjEvDNDYDgQ3pbn+0erDBQ1WgZrPbuwtjOdKuD363qfCQVx3RNLeT4Efe+duJmc4BbLKn5imwzaxUnujezp9GUVaXImJS44x+oWBGWrcXoC5iLNRqQ06E22lTQeSfX7O3ajj22TzH/MjlbeyMv/WskyErzDr1Zez5jpHgv9Q+VqhyeTmhLACWD6a47C2XKYo0mQDZxiw9mHqn2grLlIqt4eOZtff7/RkcTulHkz9OMQ/2R/3rrvClfyCJhtFdGL0unKKkqdb47p+Jq3QC0mQCwZ6eeBP7eW8WE0IvHX3kZXJBYUX4xhTkrWlzC9OTwXM97vH7v6x1bk8g3YZRCLuyL7GRGB0gCC6Jh8IhGHzCToDbi4vSuwTBkxfZaEAn5fAkx0828ye38STq7UaO7ZpMjKd7EJaxrqXyWvDZ/6uv3wbgQc0pKnLOKyIfbCXEX/sC8j0BTCPwCRV5Q4gEQnaD3gFQjKnQCCXWFeU+nwnFz6EndjNOoeCLd2jQ8aBCdeA+wNTtjDwqr1ua9Vr4nFTv/IUQKE1NA3/6iEBkCZE7r7pavqaMPEWAL95Fopv6VquSsGdP1syOcHeSuxEEy4FdBbjAFngoOEn2DGV/rYtqIDcF3jl5bFjj5F38F7FVlrIi8RZtXkiwm9o139z/WHoDT9K6nWOXAyaKSiVwpkhKDM9XxQcwcuoGNyPYSfPJqmm38aN0jOG/gljI0BGuynUxyjRHc1NTA2AyChPuiiwxWPyM2nycqky+EeVqU4mbw5vnazW4qadv2RdkW3d1pjNpWV1mCMMr13N0wbOcT2J4E3XO+LZEAUxcJA+nXmNYPMBRaYjZZpO7+tGG3/stBw6B2aJQHWxXv+Y7owKgveyI7vyBy00tlIZdQpo0u5IDMkPoGy8ef3YCRnuP7YdoWdCWz5RwsJNfE7RNO9z3mkBU1ap81nEiwDqlpIxXbzmasuNfuCBftLl8qvEjDOLIr3P+oN9RWQe5dMG8ncPkrzAdW8F3ykd2zqaesPyGKUUSY3M6v4F8CZVYgvcatZnA2UeI9YqAuMayP5dC5il/R4hQ50IFQd0tE220Gzhr74N8dLRs6wAFOeNmVFuWKsksc45URoHs6r/wheM27YgHttDS+yOLGLqE9gGSvJL0nwRSTAKmFxiyE80iKaRS+ARYD3Mb83oqD/XB8Idj4jpfDYL3GR3hKyhjtjledhz+ooPolHslrPkExGnH6sS4kX5ieTtSm5ELtMrVEtO/qO2iaSEH+RzfGucIvvZ9bIA7aKO/UGgYUiVUXO32GldAv1AUBBscBDN+VCCXVr41tSFLsvTDBkMs/NVMCsslu8Fqlest7LmAtG1FTN96yqQhKMMwsWon4oUWXWVmQO8YdbfqjPGGokw+HyEmU5rbaYsFjrhDmqvLTYiKFckclV8//OoY2q8QSCeU6/ou+8aegfNNoKOyQR5jcDPNQQopkO/wD88ghMZ9KgP9pnnAUpI3m31OWy95yWMdRNwkIaDSSb0jtZTAEv7pi2+fe3NM3r00zust7SPzUccypmMrIYEXtqhtfUTnmroJtyXL5caQ974lmRbH2bFu1jwJosLymQvbbm7FJWGhnFYbwLxZVQDnntDt5fl314HqGv7BWMIOGplH8XUhw2vIC3Gj6R08S15xSICeWvK4aGg3KU7MDNrBHSV9yWtLPc0blOjhPetTZSLkapWR+slK4U+zR76XwUp2PIQpSPvwJ8SQnNFJ+kKw+4SOTOVaOUX/587FlIIvBwjDsfo/GCY/jdHVefFwJdyo4wpXhi5IuKjQ8aBChOA+wNSfNffVFKYxYhyiqdRVWpKmMFw1g6GryX6su2b9MPQTJ3RYO/+yB0C48o87FzHowzqvIquWlVOfrT0ROYSw1VQJ/nGc3nuR2WKXRKT/JKZ97ni1U3OC7+8AtChlf7tv03gNlvBibzSeykCWblMlCgPE1KQsVtJk1UUItqsdNIbfzw1x4+Y2SFhBUhaMxW8hBCF39Q5pcUi9i/KHVzMDOG6bbAUuudFwcirZSu12Qbwe5ZB6n5XKXEdFWaBhz/voCAz1OWyEpbhSrz8SGRQJUiCD3/ReclkZjTWSTFwdEyRmRijn4BzfAWgUNretgwUq/jfP2ICnVKdNIxMiO8IXiqu7An8nMh5TLxKst9XhiDbkCo9GkFJZSysWDR3KDH34caSEXuM+C4D5F4gM15LlZ/fiOEtPP8Qh3SDt6o/JX6h3kQnDJHzUmxEBU7VH8elARdcnsJthbgUziyRFhPpgj30CbvoOgifeWDRVixh1H/tASPV1mv48U1+ILcxUBn0dlHwGaOgDS6BDrxECOVuSglzSmpCXUYchYZiYmzfISsouqmp/VR0RBeveJNJDDoM41Sbb/g6xyMdRuU3CNXBiumhUJv/KpNMXdmHsEQWyMFwi9PwDZ9MOtGDtvu5r2K5kYKhfXhTqSRHWgf33WkRFVlZGe0/+s2QHB2Zy36G5HsKhSXiw8HVhJADofbTXDiVpPFEJ4bwcKkYWJTGtc8sh0kfm65TGedDVFy7NvDCdID4vW3Er3KmVv2KOEcm5Jz9tGqUxKZPUWvMIYjTthPBER5JJpuaGRnTLGCBgpJxtwwoG53TZi/oxYWVjslveFTd4zhOAhJ31ubAcMP9rnAcOFWQRA/VXLFE2Y53WzQyMt2s6CaQdXWPExDYdV3VHJ9B0gwx9x6vIHOpstwi/Uf8kRXgIwJgfCgj732lF9t/JG/XULegEKqI08YVl0yHQFD/9x2AMrpFGl946zMMILqazOOKTNvWJ2pGzhZ1A8k7VR5Z91/lri4Q2S7iki1z/EKlpYxaOWQE0ob1tzgQXbBpdy7mwRRfou9IPM/m65h2YPzLT83ow1BPKZZDpPBnYVMWHvOCZJ0Sq/jN9pd8cgD7d7qtpp9KhAMl1K9ZT6HSD08Kt+wZhft/GpqxGTz3zubyXbbzxacFdTIq2G2I/zU+9FCW28DXTI1fW+J8TLA2TAzGQKbP2agTQKoheurt2c8TwX+Sgz5m7Cwi6Zyit+sUis42ep4ebYCnWJyNTzG8DdWHhipT07Mqu1UHfN1/BS7d86CjQ8aBCk+A+wNTvkiNIbOpG5rvH0RC+yjWzI6AqRioDvf2/BLI7nVcBzFGynEKs2G+/c1NpaSTOVSrN1cBVxJNQA6FhB8z4nhIoySdmVs0bexbGhGTvIhgVvgFteydd0Yfa1aomjmqvhsSJ4yxqcn6JeRI5Ur5oTqB7BMmJQ1F5gcEOObh4HA/zUUyW8io4g82CnJYQxT13RFkh8adXluiiA499CorzNm7wLcMHI4AIqaY4hSmClh1LH1zV7ixoVqBjTwVa6KHEnsWOQz/q82WlohIObibRUmoOnZcgi/oG8/lt3i4UXNzTX1Exk3aYln/eZsdZ1abwnjSvrOFq+mpfZcIijLUPGvlyo0YcsfRWE85kLWInobKa/J7hcrYA96pdOlSfdu/AhOabhvTspS+o5kdcWBfcitiE745fnfwWd7EuYEbvzSO/FpvQv95KpGgCsSEASTwa+oPDTA8Wd4O6q1pYcFYxDdzkO/41gZXFYrQjlsMA0WVxhsJVwziL62DZqOliEQed8vHP+ARdIcqIiibViUQU4lsEpreoUJ7exsXxg+JY8EcC/Ui+y+QobOmcwB4NConC46WvJGOcVwTWYZqRnX4pwZ4XorBeP8NaxbmQ/s7XeUape8a1n5xVPfeQOikRkNBNkBh4YMRjVnGBknZpRkjTcd/dvZRuxQxgFxxHjLGTR5dk277aFR2yM+3IHXZIl2XKDgg4CzsHSeAkkvtizXPprepuACCPkoskCxDAJeqtnQObx/mMROCxqTZZXkuxzDWzluhtxxyVsqbZR+X15YrBsWJyjcXpwCxagWZywB3WPBfuXK+mT3lDewEX2kJvzPlz/7im3UDqHLI86GJnykkVpfQQ/AI/dgOkPn3wn0gV2Js4dYna2v/faWYWmEp4huvuu84/aLVZLVwOpf9I4ZicVFb4Zkrq5pK6i8cveuUnyExnstplOte+j+WhQtasRka4gIFcSBSZ5hOn2pxLe4Oop/qaUGKJzWP0B0oQ5TKAwhzEjsRA1hX+70c9Ydssw+dC9jeUoRWgdW9RWpi1aOLZ3j8dGiQsvoE3B463y0tId3yuI1F+krCnpN9Lo5vhhNrS34DLYwiBJiCA/DstEPhvbXQL4ABANGaBrsfTdhw7CrtsOyEAIRbd3YOPdqnL4fTujj7axwMJeCdbtaY/kRjos4ViG7Is3sbNxapbeksH+vAeNrevhOf+0w6lLacvwR4O/+Q/k5wndW2GeHIh2Zu1fWshW96zEX01mGsZ4Noa1WLpzF9N0LCyGaAb25Xjjq4mIGjQ8aBCoyA+wNR7aTVjtQ1sNhsQaRcNhBHxDsnvaMyf7u3ojZYUk+FagGCkI/qTBKcQ1+Mcj69nVHxQcfZrtba6DFWloKN8tsHsBwvRfWVud74p8WHyI5jdDZkKhxy9bYfhA2RKv4b7pXWQZAB3jlqLGJB/fEl/PtZe2ORrbOOazvHSFXWI67ZeMNuk8uUMACZNA2o5cZW4HWa1SChEk0k01FATiMlbz/NZTXxS6ZKaoNiQnsFJofOwduKq+fBBTvY6qjtQkSVw/DwZD0X4I2cLHA39jFVcesDR5pAGJy9sGM6yOr+BT3tJN/Jt88tc4nHA90aD9WllNbPmKxUGE4n3wlYcHaPg2bmalRmxDjhTTAUTwSz8xPSG8WpGkkfzJx6YM/8hD61L6KfWZjAOqgraHTYMiEnanGhayKNPdMMjHMvydc4aCRJflCmFwiNq174jRBx9y+RogOVHGzMMuXirs1OY/WrFpy6P+PzxIyw9EpVp4d/jzR+/N72ltMtQraWSPw41VpjjA/A0mRAYub8Z1k78IpQkuiqYwT38vCzNH5bX7NkkQStguKURQEXphY3mgRzVPsJ9yddeXqNPWaLRbmP7tXfr7YGHQ/xTSEoJFKAgYwpB1nOlbKbMv58xG6cWwoiNXTAPPwF+bDLxjC19ZewMEc2XyZd2nPq/PCeSKO1sMPxQRTMT0znch7Q3LGC7w20Pw3v8G7ZVloIzfkf1lG3y13Ns2xe8/rPvPnVl7KXRJEOnXgVLS4kGubCE/ISlipmVc7GuoRgK56RhMrflJt5gPL/lc+YC+PQmJXKZgW9ANEKXPw6JIGoHmdI5VYx2h6J9vnWOhayXSazTQfK5cK+p3LLJXhAUesHT1QbPG3kP8vvdtCD64Rspo9poi+aaqWEa0tIhkHRUfYd39o7lvLT7USjJFNcICzl9/0/FviIE169dUDxXz8rGRvgB/N6MbhMkA2ctGROXhDbycg8aVSdmyDhif3rErf1I4WE5a0nZduGUZrXjVMJub4y5TvtjevkJ7o7qCeeBSyT5CHvse09n5L0L5qRUq9pzbjbbh2nluPhuFX8NscnQnc357VAFxNCeShVtNi+3NrIejSgo7UzF9lvD9FnUt4AcMe74Rwf+P/PYPrsy3b0mPPEGXLKL4ABof3XZ/c23OTYLgB8B36fcEz1mWMcQmPOfs2NSE0GedvpRckAwSn6McQRuCmWFki+dzmDtiXGOXrfe3Hv++QV/04iQprJ9R/3K+yv5EoKlJbNe7oxFbw3avirag4BkPiFtsEWK5+jQ8aBCsiA+wNR9Aa5wL50EHWDTKl4hgE5Jp/ggPkv8vZ8bdw0JA1zeWPzaPDv4JHSxLLv3XRKIxn0zWInVZH0FPDp3R9FEjv5vqusCokuRRuc5hNNdiHWarDBV6loKT3g1SfXu32gNjNw/A1iw6Kxy3lGsNfB+sOgw28tQXuZRNJdADrpj/eAg6c8QmT6iaskNcSm1ADZilrOhs1CkNHxSeGgda+1ZvEBJ2pSndP75APVPL/ldYld8J4ziIRaLGOlFyq3T308H+nV0ObkgRLIw76bYvAd0Kl85rZkexdrXvhHNmn5whf7ICTjloq2+u7PHrbgv9VqrVWIhmE02SqyHnGJtlmzqR9pyqh7QpwivmvnPZdca/Ux2+vjhO9y53bzAk+0KHD0X2K6BJOx1GbRepIwghm56qzLMSVHd0mi49GPnTeC2fZ/D1F/Lf/kQ8oLfmkdRF2IwzkLORig/6yt2Xq3QasVl/LI/xWnW2MmfzLJwwA14DM770Cv8u9EXvKRqBST/QyLHBk2DAZBi+4ueSBJEkTGOYivNTDs5fNgkBwk4z1AEoVjuq+ds/Mv/BJyIiMvUVevMDjJw/8YAOZSBgqTpsdQN2xNLGKjeaDxy56y1RmXXeGCvZF/lSxBZEE/TpFdhhJL1bPjf4bBNHIQxBz3PW2V6TJARawz2WhyKyFwci4G6k0c8lBHTnxBcQ3Ez7fxQhaLhdZOHHf7w6R7tjo9E3Y5mcXo1HMsRCACWJ4Zse/gZUmxFbyEGyMd4Q3EsvpjJj+BRoq+pMZniIspI0tMe1O3twSXDpgIFXFW5jOTDYKxZDOPC1r4GmYm0eZU7j/BLhnRLCP91EKhCmLqA5CtQ5FMLzFnU+D82FLCc0hBMvGOjvoe2d/pvHaiM4QHf3u5+EpC49fI1LJoJZPlxyNFtDNS1HiRQE1rOEwA/sCEYLj0htVG0HDb1PDbqUwdW5FmOA7Ppz0Td8UITDcfCmGl7R1clF+AtQ4X9xnTXJUHffR+OY3hfVRFxZGbEhaOzlhDwLgMfb/8nIrJ/X5eqSA9JgUKxit8uKyvKLBI9s0dDUKePz3fac0jyYtaysGTUwRflSVSc525DBGVWETcZcobW4P5y/eR3SIJr2o48emEMwR7eJSv5y6KtaAmIb6eKaXkyBc8c+E296qQRqWzc3BRKYSKf814VOc9ZTGoHTbEVEmfJ6kxwQcgpWR2T6EMNwPrKfiNbbJ9B+Vc/aAwGUlQjVWhfcEtXJpqvcDdQGyewqaUh1B5YFhMk5hRq/mSbuTFnu3MRHajQ8aBCwOA+wNEIVvefJD4OUkNROpTLmRZ1W6D0uQW4cHnRDXymjQE6CS4Wms9mLqQQrtacLbfoOZIyjArsWd0Sn3WKktZREnypL31fTjPrPw7RbODwouauhcq7cGi8fnoCQxLjjHoJOZSjYmCq7lZ5w6uj2Mz/Xlw5DmgcB6i640mUeI3Akrw+oEAZzWi+yiED5pFyxvtSF6IPQFrtSTZOSf8vHqjvzcc1pWq1C433Do7i8RCfbAOsXaVhwxB/NP5AOO2ZtqXLZL2OEZFQYJ1WUugCkqGI6kDbGBKBfHOJSwpLMJ3+r3EwUl57GGSYC0D/Az9T6OrjqFDblrclj7use4RBJCtNrbSXLb9SbTBPe34oVH5T3yYKBAmux0pS1QyFHE++KU5YW8rPaoLeZ3rdh9uSGgTPmjQKVq+bXiQrOOzrf4QE/FIyVmxA6y8KRmw360hXHb14Ewrkshf2y7cu7j+hTazVrbcaPsiPZIOMP9iHkT5BizJnUQCVYnn2jmSSGTHq9Z8ozN0VsYwECeik9E8mE+pILt736d5erAcfhX4cQ384LUEN/xCvmkFssa9g9ZrFU7QwhSnVGIfcAWCS/iwHq3Z1ZaMJlCGZ3U3m0vznvBq8efKLA3l5WLr/Ii7fLGAS8ZnblcLJVPZ6K213FoKH3hMQ61HEjPE1nO9pgOTp0cUw0JM9XDVB9yxT+3mLnhpwL90ipDBgQ90bp//MXwgJnrsAYD+JRnZE/7mpX9+QtjhvHgXqL8TmJlWIzy73MpHO2psXXwXQR+ooND35v85zeEjsoYJZg/ratj2WkLGDsj8uKXk7mYagQG02XiZEQKrFiTetmehPsH5xhIacoCLn+vEAXxVWoK6wYJCFaz1sbDubSmFi1jGyqniFR6WhxGkBAAq9qaqdJ3pOZemI2IqnNhj+6CZRSsr+oTwxXeZUplYqYoFK7PaZbeO0+lHWetHX9vEO+RIGaTdg/KdRVPoo0apmlWXiXM6naj20wwQiKvVJj/MwND3raC/dUdYuDobPOCNM8mTdSMDGEElt2AbLDB7k7bwecFS+5J9xL3A0M76Rm0pi9PYRy1vYE/Q2ZFkqwS6/8X/iEVcyCrtVF4V8LmkkaRqkbYvBkrQYAb47FzlKhrD7TNk9jnFIbDDBr5NYmP6c1YR+1h/TbnF7Mf9jUUd4mr6a8db46C70lgbjApHWnRgtTEvhpl6c9ORcptSHfztBuy4IN/0ZcFS/S8Cbo/tqri14TdCdGYec4QzCoZT+w4HK6OjQp0Cbb3xsww43ph6QD2jQ8aBCz+A+wNSebJwV9Jvgf0mMiIs4HVLginmiMhR4kISTg10OZyvmAXRZp+wIMxkVUU6cMZg5OC91P7Ae3xEckgmisE2jbnBqsxN5wqN8zcFYVMGPJnRgTbKLAAKrATGwaP9JehY1SkFwFIRrodlvS6QxUTrwUbmKXFe4BlLglQ/niDP5vkiUdkfhDME+9s3vMQ8++1Lt3YfLN+mH4e4F5b2jqvRZwq4oxcjEnUrwWqB1nbQzMwVi43XvcPIZpwm9nMYH+rWFbRIv0HBIyCw1pT8ZZH63T16eeUsoHojvI1d6PM9EJ3FI+rWVklNwH4NOEdla12doYC+x2L1w5y7Y1qtuePsIl7tn88mMPUVwSkNr6/3OgVbcRDxtdW07ogbZZaUSvr1erGPpYNYToo+Vd2gTqJudlzzX0NgcxGNPPRey0Xw/12l3UQicIuN/Y9EW7X5uPiQKMumr7F919jRbzYBZkB9Z2byP883WDjlJGE1m4gVmb95b8q/7gGlAWtMtzHUYV++IZkYpXBt+l98Oy5o+2X/XkBKMtUIREe0x7VtaukLiLFOMspFNKRoceeC0qdTN3v1gNCIq18/vVVx1+lK731MS5xcTKgNe6PymNIk6axNAotnyVU4mGUvA1dWFGnu/RNiBd5Cnb8KUVnNQagjDxGex+z3mV67JTM0pkYfpKDa4VYeF1WTTRc7KObt71SnFl44h0glBg1Dl98p1AWFCTkpZxlegsWeFfH4JQpN49liXLVIrrLNWoFh9zeBbHqbxS38JBlG9tO+lUe9TZkbtJLmdi0vVDAbgayjwd8paLSzFEHq5QUIJ3HVnYIqtS9dy7jExBRTGOT73eFW8qHLTtoihJ2FI1RANg5YHipf7Dy4xC0tnvI6ZslScgziOPtvawthm60ZNAgAeu56OpciqAp0uobkfyCbr0x/EH8gTiAAqFkB4jjcOw9KYabGW+4OIXHN6mhovuwSrEreWGy8JLagdwiYx4QlLpBqDuXG5KhM4kg6ulWklUuORPchekRNUkElKfsSfjTOr+6ALRf3XopMJ2jM6nFCvibwR7q3lq7AHc6O3B+sEXaduKPx/AsDmi8GmnEJeYZcIM25hS6eIqSniDw3OVo+71jZEsv412BT5cZSjxI7NWhQE8IiR2zy4wNoe6f9JD1LqfEkcKSd17aLCHOHLNbH+DuXlxaGk6s2sZ279ZKH7DSAEkOxKA0711QwLX2JXvGrpjw0XkdPjjEB1LecbA/jNqoTctXvhuca0qqIfoWD8VJa8ALpq7fl/ZJ+0wKjQ8yBC3uA+4P8EfwRRR7lCWN4UAe1UysEwDLgPPmz6Opx3F7O7G/rKGa5WGHkBjofnquvuAWqwXiWAWyX1e1py48t9R06InLQcT47NbPHLFujwt1pbCIafiZUBQftkUj7Ih1hhmAj4CQXeeHB9TOMUc/0wP5Zlyj93H5poSVgZIDFUwicLxHVvYqnsZXmQS1VZaioalNM8/dZLXIZPJbz/8BawURpD34BdDCRzb/4OThUrrs56NPmOwyXwrGLkhv5TWm4jpbyvYVo+6NiZRpif1z/Tdb+72vSBiSqRt1gpXPVM0iuBtGPGaZ5+Q5yWJ3BLNBHbt67AqxTVD5+YYlqazsyQXTvGwY4632SsT2UTDeKxM9uVZU7qNXr9kITUuMZ2cw62cEhjvsy8C46/psr296zbeDJjR7xwvTMRep3mNBg7vANh/oywAVNXoVa7tgMW5vsDg4p5HwLgCmM9k0ZO7ODPdSgIuiohSnbWkGoR/dV3WbWhMg4lklPA9ml9i81jhmM5BBe0xYJ0DAbdK5kBMm3tQx6XhM21m+dxfioWt1KIG8lDPhpYMR2YgETaG2eqJnXhOIplV65uKtHMRuUBqzB85mcRrEqxNkkmkXYfFBMwccw28sltypcUWlO9tb+8RfT5c4Jm1hnh30n76opJETCbhv+ipkHi+LwwdQ6DUcf4m2AE8rt2BX7nvUGi9Tm1o+2DpnEyPWzbTKvDrqIqI6RFivgUTTsYYtjBOXqxe/gZg38feRKuOV9fOeLO79HOk/RYP1duppVHDIUcmOqXi1ON5CI8KT4INl2NiVB3BksyylByCXgjBq1m1bCDiN5lz86HLIXpCttelWrBI2FRWpLbXPDx2m1iWHYiEBXpN1A2gH7K8uEATJfM5sOO7LEVu3W2b8kLiw0z4urRPnJnzC1SkbronPKZ+PzfgHreZ3rRU63OuvtpcA5jSe/rBi0mR8P83rOr8gYXyRXJMl0bw8j9rbeGBSuvGY93ijy30bmYYc6O2mTOzKyqn4wLcgJw6ZlX9c8FwQxmaMdo+5AyXcHvOi7v3gbwexIoVDcBYh6saZeoMIgb9F41zXt9GPd9P+o/X/avziBGMygg5eIf1r6dk0Iw2VYaj/dkCF/IHDg4J55pBerBV0HQxfLefGCa0hbaSdMb08/uv2x8mADJ0yua375YaYALEb+xoOzoYpAKPL7TUPPV3LSJoODSUnddxs98Sz6/7NKRotQQV0WQS5k7Q+Y9ispszt3dV7DmuTczy2Gfc1IEHpL31OKM9gSSt2P3SyETs2jkQFD6UCjQ8iBC7eA+4P+EPwRhW4t5KZgv7OcbDs9/XvmI17uZR9Q7vAqBUB7325eJ0JrLWPEFjibAzau1h4BzppNxSDBf00GTCUDABKnHRLoQziMatCNPJa44vCAEdm0LDzcSN0Svkjn2fNDMCr7EMDHpgpXNxK7BE2Lt76w9VNCphE8KqvNHfQ1mBJq1yZWWXn8Knh2P+2bOIf6FTJm0wWuSpnKYDYIR73zZ+hTGSMWQr7pApcHIyAlruSubZmsHUGiyIJoKyfDg9AP4550PiGdisYe3+Z8h/QybQTRnDQg+gfxAg3Q8Nmz4SocSOy3zKxyH7afeCCEHEG7tQWYzMZmNQ9RygZAgahoBfLz2EZ+ldrTIren260mrD/X+W67r/M1kPIK9ZDPrjRhhIlFYfUnTG5QxOM9lxBBd3MhhEFLLdcbqw2DYPAwDcF8b1KmQCB3LG5QEv0vI50daxXLNvTT+XC4whCnpWaSDQkc5IV2Uf8rm14TrHNcNrnuwsONLGwWQ8A2+0ood+L/6cEQ/+bEFcjVs38yGAlgNG5IX4ok2+e++KRngn+1KLdCvjZuV9DBJWVTkxOCEDBBNFnaQNtuwin7oH04F+MjoBDVZ1y6uuPdpGNziHU5Vt/S4RFd5d4rpHpLHqeMUtOBl+nuLm13H1PS2zmNBSJMQT0S/+OKt4j,,,,,,,,,,,,,,,,
