success,timeout,failed_images,failed_audio,failed_video,trial_type,trial_index,time_elapsed,internal_node_id,subject,audio_id,rt,device_id,view_history,stimulus,response,estimated_stimulus_onset
TRUE,FALSE,[],[],[],preload,0,1765,0.0-0.0,sl5zn066qw949jb,sl5zn066qw949jb-2024-04-14-17-30-30,,,,,,
TRUE,,,,,fullscreen,1,4911,0.0-1.0,sl5zn066qw949jb,sl5zn066qw949jb-2024-04-14-17-30-30,2144,,,,,
,,,,,initialize-microphone,2,11100,0.0-2.0,sl5zn066qw949jb,sl5zn066qw949jb-2024-04-14-17-30-30,,147f20b5798929b04ab15aa082e31760beb6e005a30bbc8f389da81b4c49a775,,,,
,,,,,instructions,3,14608,0.0-3.0,sl5zn066qw949jb,sl5zn066qw949jb-2024-04-14-17-30-30,3508,,"[{""page_index"":0,""viewing_time"":1293},{""page_index"":1,""viewing_time"":2214}]",,,
,,,,,image-button-response,4,19117,0.0-4.0-0.0,sl5zn066qw949jb,sl5zn066qw949jb-2024-04-14-17-30-30,null,,,images/instructions/movie_1.png,null,
,,,,,image-button-response,5,21249,0.0-4.0-1.0,sl5zn066qw949jb,sl5zn066qw949jb-2024-04-14-17-30-30,2130,,,images/instructions/movie_1.png,1,
,,,,,image-button-response,6,23065,0.0-4.0-2.0,sl5zn066qw949jb,sl5zn066qw949jb-2024-04-14-17-30-30,null,,,[],null,
,,,,,image-button-response,7,27571,0.0-4.0-0.1,sl5zn066qw949jb,sl5zn066qw949jb-2024-04-14-17-30-30,null,,,images/instructions/movie_2.png,null,
,,,,,image-button-response,8,28720,0.0-4.0-1.1,sl5zn066qw949jb,sl5zn066qw949jb-2024-04-14-17-30-30,1148,,,images/instructions/movie_2.png,0,
,,,,,image-button-response,9,30539,0.0-4.0-2.1,sl5zn066qw949jb,sl5zn066qw949jb-2024-04-14-17-30-30,null,,,[],null,
,,,,,image-button-response,10,35047,0.0-4.0-0.2,sl5zn066qw949jb,sl5zn066qw949jb-2024-04-14-17-30-30,null,,,images/instructions/movie_3.png,null,
,,,,,image-button-response,11,36171,0.0-4.0-1.2,sl5zn066qw949jb,sl5zn066qw949jb-2024-04-14-17-30-30,1122,,,images/instructions/movie_3.png,0,
,,,,,image-button-response,12,37988,0.0-4.0-2.2,sl5zn066qw949jb,sl5zn066qw949jb-2024-04-14-17-30-30,null,,,[],null,
,,,,,image-button-response,13,42501,0.0-4.0-0.3,sl5zn066qw949jb,sl5zn066qw949jb-2024-04-14-17-30-30,null,,,images/instructions/movie_4.png,null,
,,,,,image-button-response,14,43335,0.0-4.0-1.3,sl5zn066qw949jb,sl5zn066qw949jb-2024-04-14-17-30-30,832,,,images/instructions/movie_4.png,0,
,,,,,image-button-response,15,45138,0.0-4.0-2.3,sl5zn066qw949jb,sl5zn066qw949jb-2024-04-14-17-30-30,null,,,[],null,
,,,,,instructions,16,49355,0.0-5.0,sl5zn066qw949jb,sl5zn066qw949jb-2024-04-14-17-30-30,4217,,"[{""page_index"":0,""viewing_time"":3289},{""page_index"":1,""viewing_time"":927}]",,,
,,,,,html-audio-response,17,64305,0.0-6.0,sl5zn066qw949jb,sl5zn066qw949jb-2024-04-14-17-30-30,12765,,,"<span style=""color: red; font-size: 24px""> NOW RECORDING</span>
        <p>Please say out loud the list of the actions you saw. The actions can be said in any order.</p>",GkXfo59ChoEBQveBAULygQRC84EIQoKEd2VibUKHgQRChYECGFOAZwH/////////FUmpZpkq17GDD0JATYCGQ2hyb21lV0GGQ2hyb21lFlSua7+uvdeBAXPFhzQEYPIuCpuDgQKGhkFfT1BVU2Oik09wdXNIZWFkAQEAAIC7AAAAAADhjbWERzuAAJ+BAWJkgSAfQ7Z1Af/////////ngQCjRBuBAACA+4P+Mv0KffqTXNuWCMY7ev7Ax/Xfak9yKHQYWRnClUFsD1uFRBXmqM7t2BYmY2pDcKmzrDY69S84Y6mWxDl7/Vlm+5fESPzOUMy6v7DouwxIZX1HfusDZ5LXgrJ3T0HUjVX9M+Wdjd4UulNNIroBXrr5xKizH4sZiyLNgQ833oHoWQLl4xvdhrOzuRjkOhr9jkBUyX6mEUFoQcJAlGtBbxa+9InJN9QO1diRVWqreUR0O+MD1Gj7l7T+yQStQWW6UVnWEAkZjfGo1By4+93JkAAAAAAAAAAAAAMR2zY6Q1cMkNe1bWZqup6IyYXna2121nd1164sHaU/QiigTIErQIE+ISBF1iFvjBEHtie7FiYIXCFebI79mt90yT47uwXO3pqYP3zsY3qTp4oaZU41iXbWmh5fJoHr5E5GImF33sEWefmc1Jj/2EGFeTC8O1gk2/ZuC47XHKMC8wr68yQA6VqkvKoVCAiZgurHvzdHL593+NFv83E2ZJilhwizZNoMYlAzrPEoIikA4A0qrQXv5khnI7qcvKcA2uCXcy6CY/Al4mtVBxwvQOAnG6ay59u+FeZyoUuznf1e863nrIcLZE4J4SeRiZm5SyKuYGG8OCi1fveUVLC5U37qb9s45I7H8Viuztd0ddbd+LHDlfXieR7Qx0OGPnzzpIAmuGwQ3G8CHHHChwlOYEdWRZCWb9342jbEjQrTOZ6LZtUE1ZcsYqHPwRxyRKxkYHZcJNiotLYcfQ1mLCuAb53f2uYIOYB42LVyDjgZa1QDmmu9GETQgeOPpbIRXOEBKH0aAE62X/QcwbGsf46qQelnfL1YqKCM7eL4r5ogNskiV6ZR9ZSkyVAtQPkSoKDibHTCPaIzwpTaxW/uzEkfGcuZ17ovMtIdQCDKFDcCdpL8Y+TS3EhviPsEEVoY7oP+KW8Ojdtc+i5pakuK/qblepFXuenK7ae0ckv9xqFidU7bleAAp91hqOS1T1GKZGOJfh3bGyO9NXc2Ybw5dVWvur6Yf+0LEzQsyEEjPvjJRj8yfw0A4zz+0Ca5DDE6OafayZjRy9xPBK5/wM+IDwbAQBapXlYU6nl4iPhUso3kgtPz9sVO8lmKkXAbxK20QGJQXHznLJudbFW141z7hQnzqGHzkkErkVYZ4rahHlmCRqarGxHBdTJ95FK4SUC0okhfvcjJyLDbycgqtus2AcD7wjz8EVIM6IkqU6e3k5lUEYr/7/TpKAVovbE/qEoZDSq2/AwNpm8gJvc670EIj7r6Z3LuYTz7lehcbL7LYjBO3/Aipbs4ZwSAvBOJ3IVU+eJakSs5uLGWcEiE4Yp9UFjllh3NOSQvrYwKO2HfHd6EPH465CrFHM7h1szc+2ph/YfjNPf7dZmzkVSurVjv5SOWo0OBgQA8gPuD/gr8C2GKwefnzNPd+rwCNA0WKkI3ep4vk9fwLoOplcP9PwSDp5OOLrpET1F0s2boJJFrrNXrMmHJPZpBiMery4Fa7kH6RxEb9ZY+z2MsutyafnOcfgy9eEJMF8k3kzVMEuOEO5XHA/aFArPZYXTzgq+EowU5HS//LvBxdsFPIQ9lunkQCiWUnsYn0FqxCZF3yM+k1wmLCIb+HIwfN42uLQ1qb1vofTS7Rf+olUWcSw4XJZqlYPTiJDgFAvpmLwcJwVvsj2ZkVViS1dbsA9GMBucGcC2iYPwLpElLOAoN/h0wEhrnLfIvlyunhUIOD9ogdh7HhC87OveaB3DqXl+DP4pNnKb9N5I9x80WO4u9ZqszkdzRViZ+ohOu/WcBLKWEmRmZR44vQAUiEWGHsqRSSQjBLhDzMLnSXBlYOOiyalphIvSsYHdqO2p75uwO88lcem5sucLnDsrZ3SrbJ2n/1lk63SLn8LCGCbJ4ZrY6HTVH8QTO4ugt8lHwbUF7/FGb9SphqfL748ZqZlRQiI9M4cyuZpdDdv8f15DQBwd3HPqkOgC4nXOPl5BA4P5fDv+SOFcgPPKCmsL4fSu/DIR961IjR4SujGwtyyBxSK5uUdz7BoMryvD9Lnb/UCn45OkfGho5xslsMVCcOQbN6y6UAz4Ork1YPOGkPJQzDQRqAd+RpJqZDy483ND02D/t00uRxde553/nnTY0O/mA0OzuH8GM8Qmi6Xafl07Ipjh300FojUouNdv19BlNmAtLmkMzjcTsSy9UgIn8VVh2AUZK1/akYYe3g3OpBbfIrCYoHPzprzo8dHrAXYU7DoyRG+rU7BsQRdPRFVsD33uPW3MhwkURWGToMiyJnOfd0ojnSo2hi0YANgmwGKc81F2W2h54lWP+zqFthsg4yoOeKfXi+P/zXpwvcYIvjNiZ1MpxonssA+2Sf/Y8pLdVHgUIckq0fLSHpN/VbNWO7DFwP65cNEoUyAaEEJ2i1NWLTLHCmcxr9pnLcJKrAZyk7drrfJYL/xftCzMYVpPF4D60YQsLADLh7UfB0hEwctBMNoaSqb1uf1JD1csMFkH+lbiuvCoeUxkl+oLfwQgjSu3UjhJ6UAfGAXVFNTeB+NwOHhFog3+UfWu1hMnC+2xYov+wi3vh7OyLvb23anQK05OUkKgZ+ufi9X/9sY7feyN9o0PCgQB4gPuD/A/8EWG2TdzA64vPpNBhLd9n6SCfs+srNS7Cw6p4LJo0gZAPXowajLggfGxhIFJQJZIBjhSmWkk+/mZ9kDSbnl1Iqp3QKrpMxQOwI0tFatdVsYQG5qYzUf1Py4z47/hHZCYzDP4asJ8CngMwvjWFS5PA+pv21VZsJOUxveaKdbepudQKtfYOVDASnrWNvI7pv19irl/KRFNVs6szu3uYnDEDnv/lzPlYaT2BEwCNkx4i8uSW70M65lwO98JpAUfWFrX9Ot78lKJDdksm/vqN3mujN3Y9pB5yOwKsy9sm19mZ9jQAR0IaV5i7yLgc/IYz0CsC+IyWXRWVu+RNUIBYg4z19RVl5bYOnQhQsUT+nFuTnRCRdANASg2m/5jE6o+qHGb3VWe0GKDaAJjpkLHjShSDtDR5nSjuKVcV2mG2IRC2+4T0yzJ37AylKw4z8hrLTjuMJzpJf6rkwa/3QZFqdd3WP/vX4u/WwdE6fRvA2ggx6CmShlbqZ+TeV7VtMe5eI91FpuaetJcWCcaN74ojH+ntQJaOOMrb17rMhNYLkJsLcVj6kzcY93EWJyZvDe1bycA5MRQ4UZDIv/wHu6RgAVeQyBd12bpDxq90y1EqiGMSflCgMGFZ1xnc/XEcJX+BAaHGrB6UjrKpFSn4jI3E9b1Vs8Db+crEk8NDQXe98SVxiejyYT0qISMVCnrd3WRoT5m18LJhW4iCokkOkbmrB437tAY8awlTcnliy6p7CG1/b6zCGWvRfc1G4i4kRL6FKg3/Ftu2xFqFk0AYwg60yaOCffJu2GKOI4d8m3mygAdcpo3lU2O8yhjra3rJ86ZykrpiRBIilL7Mi4VGb931/quAbbUWlnGKxy8cZySVXSi0P0GjDDhf5mu4ogf4SfmCIAOXVM04hx2bpOtR71df5TwPIKEnjwcz+cnfjI1GoTIP4K5svhrBjroQq6HRzyLlaSbNUZrhdEnjZPzNknNLrIJcXNWgLH7I/KaUd0jO+j6RA2yE6xuUN1g2UhItY87999kYPhZVuIEkTIQjGBmYco8/xxDCpdtgAg8VGJ+JzZhczj1ZRPq2OynasZm0BbtKnlVobOHP36X1scQdDwFGcZrp4A3kADjl4ewK8/WxmO6AM966vLMKsF5eJrKBKLi3Gw211hqQ2H1EMIXViIqTbPp67pvd8DjakDz+Nt+3/ENMS4ROkeH0TgPBLSc5Hs0ScjGlnhy5BaqRgSAo19oWvwWLvwMb1/9+utEii+I5+7jIPVHV+WplnM7DCB6jQ8aBALOA+wNhiscdhG9R74Y7LQwBMocNfP9jEJ0JYDfJ5iemU86o3fRT2StGDlRAEJpgYeleq5u/3cQtRSPdEOebfjm2Jikk1lDtBsPPGPHiFUQryl7TC/ZCNsB2/5wHeAN58VK7jTom06o8/jsXU6lt/ZDT09nOIUXMvWD6s2PFLO2iGVsJSufhX5Y4MLROSv/EUqMLInXiaxkejDfc6GpXe8UdV/5nLWQRDMu6FHOfebykHJ1aY4btKxEg/Jzh2om64jRyrLRZ5ohQmuYyMto0WUagqidURmMKyRESXMaXBQqNWaTsF2UT/+23EUH2+DzavRU/XrvtjgnxQc7rMTAL+Ea4vssOdS9EN8eJQ35dqqW+xlrJMKbEtL9/xuUBuzUTBRWj5vxUf6YwifJE8iBv64vWvfG2nl/or5/e6Khizmrqu62SmGG4kd5TfwMXUa3ZuPRS+TACDIWC4PtR54xspPrpkPJtKpoYpBgdwxbInU8tYsCHAb5NAKrADzAlfo/Nk3LBxbK53x9MENnvbsmayrqLJMbFkP7TzGosetLXzs+V5086c5h+6dn0DmAU19q+yQaO/0JifGPJubE6Kc3szhwbadJ811gAZ+mRlDB5Cj+Cn+kv8kcgKTM9yQhfBucWxOSqQeKIthKNahNBlzoY7lalcmB4sOckU11PFR8382o4gpqPz543rrW40t9kwIV1Ywg8XH4OpZyhJtaKtpWVUFaxeQdW/l9fCEcTFMdP6cwi78SB8JzwFStLo/wlBVca+fDagRBtKZwqhnBX1B9XZKLKm42MlDxIJ6Cg9ikmPV0WSsD5pOcQzE9m4o/TBAJb/EHwk4fFa0tjnt5otjvbFndHMlYVb9Lit7rQ9CycpzyyXOfBFFUYwOa+oDm+ZeY1d/jatxSU2wGOrxNvNZWBy4W8mxzNwnqIw8aBpFo4OLGAVShrahejWIF6ShvC2r0nV9kgowe/NQCs6hZw/POlwBUt/rxW+spmpraWgg51vc/0vwz8gsOKo05apn0EOKQTC0UwGvm0kv7NYlaidXtD+M1q1qNS25Avor67rLB86gRjKuNZqQq0WWAfwmN4AEIG1MKKxV2kJCvG0CNqdHzTMCoNv0rolIj1+2cvB4jzdE7W6EAdFUL/mQ5ysQjrHci5/wYYtMP6oRMTYiQU3tjAkzRR5Dw8jbtazzs1lNVyQNendNNgkDUKmVsytQNxHPnLKCV8uLs6G0qkQzTsb1tapL+r+Os6HAUZ8CqZCGjgfYWh3HSirqNW+YzCVFGnS0ebBrs5vwWjQ8aBAO+A+wNhh15x9jV6rjLgOf0yoh46RBG19bTDDcenj2KiOKCuRvXk8BRYJdM8ncX3iUDFndaQpQMnamX0n5vr6pmLMuFuzbjYU9QURqA9Hi4YcgRIwemb99M2p6q19tSW3WFdlRbGIk7fsXxVcXyigAG0csR1SGLiH0ccePsbrr9cumU83/ci4kRvCRuU3SLsyV9K8M511B9x4BPczwhP/teDGAZD4G6JVSgZsUHOMgGljVB73e14tTvukmEHj6Xs4CvjOoZbMKKX4O3r3g1wBkzE3D5bR4e81HyEO1l1qFCeRPIQlRCExiEIX0NLcTR0aRjtAo+wJjXuCHZLl6asxbJNKHI4ebsu9HYhszMzo5+fEfDFcLjucn2/j4EFObGA8qQsF87nKH/zo977NnURmOhPhX2jtyPq3iNV0cTvh+n3VTcdgWHSBZH6sDiCJ7PF2jiCcMiwXEVJnHCuqIH7lFAr/xRPojNZWiumui0QgdQbrvt7UPDL2cNK3OUoN2CMl7pGBxkPr8Xi11SjtSpLaVibjNLc66SYw3mrKQKMK+JsMBhmMWUYnmugC72fCWsn9ifysRTaZlFMRQUYlonwekxZJ5sSbS6NX8PLXxiaVvSNaYvxZd+oYzRxBGUEAPWy0Q7Vnr8c7TsKPX0L76W8Mx1YMk1KM5coJTmgq6xpxIDFFr7ae1yCHwE8Dr/8ANd4p0isKb5gJp5RrsVltDNXqbqO3P+qK+gCQeuOasv3eqtRmxj9pbu1B5U8Fgo+wP3bm59EYJkbugLCfwG8zCrE+4Ajd9s57W3iuA0mEa3C2OpUuO7L+coDIOdBS+Wl9CgQbmreRnCIiPg06syFo3MjbPL8tU+mYYdxG/N+e9z6uWWLxCihMC9V+hy1qkmbpTPw0DGwxulcnKGv6tTP2HzaIFFvN2ES3wQ9m+tfAkqodwScq8Zt4fR8OXwzuOO4fEfyv893G6uxBGWzq1Aq9sp/hSp+B+pJWD07AtapUGcRVWrf5FXIYQxH7J7fdhEV5ooEIEMpEVdaYL78Ph4M0yQh6WxnWeoiu19SVh9exf0wWNpQBUORKv+cpD0Q6PTHCSw85YTRdK43xrx19xoMUCIsS9oElREPtcVGWhk3gScqYX9IMioL5WXfGUOGyht6fiHDjqlib755dhDpBTey+HbbimOw6TMcewh1W4oFTsd+3zgU3v0Df9lx29tC5d8kfv2q7opUIy8/FCOu8FRZyBGuUpIJXeF+KzMqA7Bdg6U2nus7UM3PpsKSRIFZ0k2z79nAtf+CSYWjQ8aBASuA+wNhth6oRDgYYYuRTqhLhhgb3Yhb59DlvJOLpxp4xRsOFEWDgAR2djODvyz0xT7M9e/Hip6Z7WfOTMSlXn0qQXYXJIt+DYYs/pmO1A4ioPf7GFVraIGzYkCq6igiT72pccY7kiGiCwHrtaZ9eCkYG3SbuaiX5M9dc/TbH3SNZ6v2RGp/uPcgRKYQ6rFZpZpgovxtAlKLPlZJUuesvmg7TX3DIBXSJcq6r1wjaqjGQeZpmvQIqkyUCiFfBUt01m2bFuARpissRy4XT62t3s+uE96XQHbtTeMZI8ryq1gUlwPWNxeFiK9QXYbCvECDdByKPqQTdXwkwfW+1Zpe5nmqGdIao/5BI1c56dV/7k1OyJXtZHa9cWxfa4LYRb/W08NFsj+mQQof78sV+rkg1Fop69oUBkFFFPA4EDYuq4yo4mxti2G2KwJe+109TihSS5gqcQV88oHAwlpBKpVhpfL2Q0bcz8fLmqGIbtI35OE2JAXTCIDDzXT6hqo58E+7LrlMq+/275LAY0kKGEttykdFcxwYJiUkNrVu2Wx9EcEEGHwaVVMMsmPeSJ1q1BtUaurBL1lCqUSgBIrBhktQcTt/AUpq/scT0fVxcVFcnLGFDu2sDUTu3ErMNK1TJ2uEA9v+jRTRY6zvCnB4MltykpxjpCwJYGtEaV1jDdRPPZxdJu5VYPDpIkqlcBFA9gJRfbDzSiwFmwkxobhZHzKn0r1xDsiLdbW7AVOvaXK7wFxvb6Nfsf2FhXlBEsNQRiodBp0ytzttOCl7jRTYmuxZfeOzEa43owT6+pQVXim1DcEqW/IbBULZkHZUDDYJVe7K4HNg173Mq/+Scqi7Md28rKMKyBbWYYclKIBfsJlktsZEfPh1ip9LcGGq2+w2M+bUy3zJDZALnUZG/e4HZalScBD2Ho4OCLYdVT2TpXmOMQxF/H/13qM+foPO/4vIchKZC8MqDoQEHjRFqlVdbWTG8S/d2X3pyKGhkBlSmj0j3ljmU238Ea3KoizocoD/whLxliV3vjIUgOQYL9IPWlAZ2spqFeFGvSefPRgFp3bldKNTNMch0WaYwGA2AzQdRyy5BmMr5zBe4dhT1KTrm9NjAOkq+OwsG1Q4oNzB+lj1Rt/V7sTtf97Pf2bZUHC+iA9h1l35pqRGdsd2GdnkcI79EeWy1h1lIj7wCffwVFcHoUx8KbCX1lx9LOkGEvOa4GixEopQgXrhXS4DbCvM2c94WhR+YCxJojcgmIhemdGMPRPdONnKvhnvFKcfcsUWG61qoS11aYKjQ8aBAWiA+wNhtiRaRLloPo/6XLrzuK5BCfy2hSVlN59kA5IoLg/I429wR4E1Ta28BSou2tASmzK2XPwN+mboV6H3on2TXunI4JSEaJ3oo3EDjOXdfWAaZlV9564rRKbrmlw6aI6mOc0aD9w8lXmA2Vrf1Yg66rP0CMV8Koe5NDUknGVjNkUQ+UBkmSBHoA07BvcCOGdPASPVIeJwcOzhX/ZFm92MMdFOy7D9G7fQiNL/LMFlchSFGaEHMue+in3VS8OjWdMX6cuAAuNK93Gm2CX3kE0L/2nTAorO/ybre1ZkBgCPX2SJSSq3kmjQjdz4VZId8a81KwoRaAF9cYj7x+sNyGiwJLC437ajZXXWL+uPw3kxBFvDefN8+HtMHVNdbCYtADJ+Ou/crqtXLKmDNP68guUuZfoUSfAcV5kdM6Dsltw6ONiUwWGJ8AcuBSkV6bkpIRygmTTowHG4Y0et11cG/6DctWU6/QSDn1Jk2Gc3cutpzU6xauFfWfeE9xngdWkXpH3jbwXx0MMjNC4jCmTJAHOQ6LrGfnPhjFDqQ7cPlponfaub3b6mVcia/JoXv7n/XOr1C7SHMhmqeoh4GqFlNEvGJjmy8Bm2Fh3UZ3anYsPNkmPu+bS6ANoL7BOOI9FWHaFZSX0GLZIBsOWYeTmKAJPn4ciM781OVf6HIWGJ+4HxqghgA+gYXIrqcdR5fcIj1a6C7Nz2iF1efI7FqDH+k9/8MV9TuTMCVPrhAwZPx1RqwXq6X7ZjdK9DSWgJgY1j7+6/GQEFm9Os9ub7uljmLdJVV71LkWXPgm1K3XN0LLMRoYmSdr3zQ6usFSTje0NxB9MVgLqgCGqClJ+QNg2rAJb4K+oQYbw8kbHOBW6PA5ProaBhdB5wBxVM9eFglrvDc1Z9kCEjV6CFhePemIfXtEJzDvY5ZSh5xLt3fGpBjMEqKYpRawOXnERvCKCSnXIpiA1U+RRCUCQGsLsjMgtt6329wEwoRIGoLjji5+8gs4ypf8vZk+o3pXvbjSgNUTgpBfiJ650h+pYFjWg0Wd9QQY9Ew6aXxxeSS6hbYPWhAZRYe8F7kSM8PBvUUJSD7iSbqJMYv4ZkrrQwFKgU5vxUWUe+xxNZ8iyKaJGqdPBvothhPs5vFyvmgiQuB2+5eIrstuzIXbvnOwuulO38xvHHJ1GsDi6L1ZE9JXo8EaDJyBmWyt4CNljZ4suKlDtJFxBiAgqAeklPqbVinc080nF3tynFO17+YIpvSZWXc7wJTp0I2/WgaGdQjJTjRhgP3eA9uKHJlz2jQ8aBAaSA+wNhigOrurhScbbD6QnywT7QtyfVd/nCdLqC+/z7kHVAhwPKr/QZrKwT/dYlSjjxn3YCITnJiqJmsen1BMnfB7Gys53XeVtVRknSKviP1cPHnDHfMDbVzTR4ypqYKf5/OzepL4dBLNgCAi/X5x8wMuHwllkCFtXIh9U8XRYT9Trc7WWK0odZjRFhXC9sLE5muYPY8QfEOIcTDtzmtsVhdQ2GLuMHJ5i2YX2L5Fopj5FqDkSjZuOxSEIr7fkQEC5LQZ88qn1wmxEylAg87VQ7JN0HOmxw79jizLMoadJ0xNHOwKk0vrHx4ubyLeUAaE84r3Nyh6efIKm4L2JBQ0HV8IzdDEq9AIRsjgzx3abuhPJSk4eL9H4xjv5nJwiX6N/a3KEFuS0HELNDVxLxcizdFHsgxiv2ofydZSdNqW33tGIPo2GHcFUP0ABqQgnB1qXrJtqIZwRkzhszxOKT7TWTDRGzWZwPzVaXmsMpr3c3ZLa2BMmlwULqWGDIoYCYQ8NfHqUwUVVu9yFdmDW7vO4U8UBbDaou9PCTd0WamvNEqZsEKasHH3IgOgmrbpJqTvGdz8rNKoyHZIB+xFwo2GPDQ8G1GNqwgruSAkZAyUSNvRkufoUoqlrWQKk6hKkuDd3wWKyDMRp5y2hXsNY9W81JDAGGISD+Yas7U2zXnPsDW523Kj50/5lH9zMVJFm7Uvk1n80MtPeGimYkU8gdszRIrz32ojKVbD559fCHgb+GvtvW0UTPOCnlkViecUKg7DMj63IBXSRPDFOjbLcqVbY0EUqgQ78uMfPEGicPuI7ZT8kelUx4mQtdl62E+c9IAEH825zF8OdTaHYqtj2wx/TEiLUQYbgL9H9gt/7N71UfQ+Uy/oGdxspUqUvPCl/VtRbeBPYYYZYMNrSLdnd2CpKgCDvY/F1YSmn8i026S/DwnmDhpykbAIB3Ye4Uc6u42HUu+oC6XDOuJOFY9gI2x8l1zvi1W0RRxmg6EJjywqXFMQwGZ8I+oip7jvoJs4tMM6QLfAgYermQuBHTg9tJiSgUKNkTzByzznvcFrAa+Ebh9TfoFBL6FF1uqSZzk/l+B9N+zt4MCKxMRCZ48nzKM+zoxXVNjCGGxYVIHzpWQG7U8nz0glNIarADsiWu/+akO35ioPAHG4vURsbw3IEzSZfZEh3UqA7/U5yXfLCpL6mHtU6Iwcvo/Sltwg55dMpNLnrw9xh7Wje+vcBbRhIIEf1Hjz8hoHPqdzPUS3PBVnwQ1JWORzeqlKei9lYfzejJb+Z/mAajQ8aBAd+A+wNhip6Hzej4zGSXZE/HOXXPPnBY4R3rzP1R3jXF6fyn4ZvYltUdF9UentRvVUn2oEkRWH6DRDHYwgnkBXzrIjb65JYjddzCr9YT+9gQvA19FAR+4aZ/hkoBdXiG0di6K04zgASTur48t7FvI0+RMAQeTmCKIIpk2iAd6AXEqufER7wm6Vy1ca8qnbFkBkLIt7ysOMAXs0C3YndccpGJVwzG6CJpvWnLUQFSuwqA1pwWAXvDHsUX8lgqzC4042JJGRzDa7mcxwnjQUI5FfnfcxmU3B19gNOlHDd0n1T40A2x2EoDgTvqiaQ4pdqNENezxI+gtYs1vIostd+kmwIXi6ySI1O/wYGzzcJXFrKcFIMTTVSmaIOowV/DuLdk042GUUf2/znmmG37zDEJ/F6/CpL7HSpdoff9hsYdrAlniJFAYmGHsr66dXBikDnguXHI/1mCl0dH9mayIs5kcYrIYCkXPiPDUK1BbRUceUDCUIao8J599noIdw+5Cv01QVdZIrUN6bSUVg2/QvoCDG7pdtSl2c1xQ5rLhIkjLah1m/beMk/WWowuRJfvLrE0x2IM8Qi5FAwgInV6M5gcoySpBiGFdtU+51+HkgPcYO9tOQ8R9n01NzRJ9wnE5ytIHo2VhuPLJfpZ++aftgDVxKkNvXLOpN6+fh77Q2B8zfyvrT62JgJJ06SSP4D0QMJJ3+bqC+Z1vrZwYLKfgRou0pL72NXpL2XyQKhbMZHpJY2mJd/kPOVmjopnY6mexpeSsqk7GyFlNIO/48QnWfxgdSfh2VaUB4tzicmct/Y/fEk6wRnqxXHCT95H2xijfJ+/0IOJ2xy0LLY7yCLnFC6u73Gpb3d8Ybw4Zlu1y8H+kCYtCId/iA258g4D9q+a8biCe9DEpXgpdwyY1MIighCpFWbwN76TtTOIUypn1N8tPcDgI5brPo0rfBXmyoUtRGH7xcGR/UoNvOjwwUOsRjoYiVaAWbkwtnKhyLG59qtoSktF54gDO9u+WPVMaQGM7S8r4u6CYnevxOmdjRvfbR69P+xfeG0p5+1LaiKBhTDgHw1oWVRvAyjLns5QWa5cpivhEfbRe285p/1YQbBeHNINJVBulAOXKxv6Bepe5Mh4bf5TF8u8iEEtRS4BFNqjpSeavjZDyvi6KXd2Gh9oWtv59MMnDaWpBAUxSFjtwzZoIv4iNjDwGUgXHPKoQoTN5IxU8b6UFEYK4j7vpygiH6esS4rgs5Sb2jlubU1qhzkakbNbTLzqvQUcu0K694Si7b/GF9WD7+WjQ8aBAhyA+wNv3ftWrHk1Ug9HkbYvFMtE7+v0P2rvZoQRJWbqsnoeVAqKVw7Hq81epNp0e9H0XWP55r479moqUzqQQit5S6+vsXGKFik7VdujjwW+zddPCK/wxhQ2d0+fSR1H4yccGlERENvq0ngap7qlp8eJXqXHqPAqjLoczqcpr0RD4eszd/BBn2RUSXeqQf3/wzIvUbbzTQUSg4pWvcS1T1voFrJa5H/wt72z7a87EQUNBGnnAOfTLIwiRCO/PTrhrhTrhSk6tESBM6F8zvqDezrX4eIzvBdVpjybE6IDP5HWXX27enhI2ZbC9MUXw57YAx9KI5wH6fQOk1IPqeiefIZyS3hosug3Dmcw4wNdAXBzVNdnfYh5YGGID8XT6J4fbYcWtzKF++Z5d+Lo1Hj55jHykC1CHGi/FuDdKUgcZVfHL1FOTmG2IRh2q1ZN4acVJNLMRJJxLbwwK/mSk8Prp5muUUqk9yu54P5zd2hFOp88HK+qbTos6XyctgVTTAALC16YICwKKHYnai1Q4hofCjZsKoO0kXP4KNKwFSONGL78LbbSCVBNxWC11TgSPaxq0u0w3/HIJHQZRqOzkGwYhijiovvqPtu0Xm2spOxwr2N2vlIgQfpavpjoCwef/ThKF7TMatnXmPXynDz2F6lozy+6w+jlSZ/KiJL1U2KRRYKqE62dC7feKCj82G72+uTjjDtX3TC3StT3HWewE2hkYEwlRM/OosDtdWDjy+V/MDXlJaaD4J2ZwFPSKB0qIFOOOqmvmXjh0JmhlExnTK3N9zOYe9IM9oFGsTbuMxeJsmyGC2xBbVyyXXjO8JO6xdBV9m7WS6LNHiWmQu5RtR2t00ozSk/sYYdv7eJNftq1T/kNIjrFepcyT1F/009KAgOrN/wfSHBfxhG7/hAmfT45QMOGUjG4njKMogR8Mnk4Z1wXv3tf6T9ldFM+bnHno1McWPbA93kMVtR5pZ2/yVDJCNLN14y/gtkFybJGW1GYgKwJCg+qUKVPWqiJLgUhs1oEmaVW5ecv9c07Qna6ueS/PmnGdTJes4ClhtD/nc+zXDFnp1iHpep6FP59YGJcS3qjpWdXIKNbbldbe/o1izmTGtsdjErJyQ4dF6fefZtMOiDdWGe71ejOJDahgm2zwWTi/ZWGL1WqGtSFqzEo+QHEvSzB0vHmEumAu51bg7keke25X3NM5un5o7FCHU8+ff+lGUJ+Mntb9gW9l6zX/neTuh6/JREdYDHICxMc8fPmQr/b56kGPWLIzYYU8YGnZAPQd7D9JGyjQ8aBAliA+wNhuG8gBd8N7YkW507iDw/19jhz0jtwrrjqF+VZ3MbPvn4aTRkcz0NucAbA5vq5A07tdHMCx1rnx46Vca+3gY1WdCrfnaAX2p79t6sqsAap+acuWIcPA0Vh/pKmfikSW9gkuBzV93iqlFX6foqUPzouuNgQAjADU5VntfLIBHUvHqZ6T35i7YMyfNZICF4iFHEYB00A/4K8Lx/2oQ90xJdS9Swh4DF4tXKnqhk2oiaNYuOzc+JlRznfDaHrl35uf1pGDjHPPvCB+f2moVeVhlTZYVlaOO5lEgL045QyEhrtEAtvgGsdylZtyp4WJKEtJJl0BI0rXxFOmB/HxImV5MYcd9RqdqCxaWvesfn9q0VO0f6ZZaAGShwCemCtuBzRMw1qIdQhz+KmpLyy40nXUjkgqBq3S2r6K0YP7mPdkJrSIWG8JbyIrtEYqVlntIVEhfzJPWyC9ZsYG+aq867BoFuBsWID0PSOOM4rez/Y6ZAPp4xtfgJx7pwmiPwhoRn0Us1XRAOTctuPhuAlr/Q2hy0ZTGIMgWOXj90oxpQ2i2ueux1GcLE7vUaBaRoDgP6RMOrjgi0V7HLF+1XAx2n1rnJ06XHg6IDDQWPIAdO0ml4S33ODskghJfnAgEwxgZGcp9wCl/ra1PvOMc4Ncey9T7IWDOB1N8tO7sS99Til4pTdlTL7T1yqkasbgnKiOSL3smUvF7jSnCio+UnqQRufx0aX1dodbBIuSzcqfprQx0l9PKnnivgmMMAmN4JSGOGdDkrYB7lA1d/iY5VUTC+RK6GTlWjaYRSV8M+XoPxMbIT/bmq80h7Hdib8PYQDE3QzJOboDLbwwqYDJQqYpHa/5250YbYel9umJZg9AQChDXabNouBcN3XIC1/ZijVm++3kNJfoHik/hXO0zwj11Az5GxGo7XpxeGitQcnmchiGMBSxepANd+kIhFy0g5CjpRpH0rhK5V5KZ+9QQU0rhxIOJHsbwFLn0Hu18dUjZoEc2dZpLtBHLxmoD0+np6UqK3PVlPxSqbA27xgKNdjwSswROeOPTbS1cZ6eh4nnEX0tKwLJjm9kFlF6CIFBJt5mmZpMWyZ1cemoJU5Vunl3E+uIbnQel+TEEweYtgl/+C56Lz69TQwjk60ya+WXWN6D/2C+ZA08YpOD3BOGafnkc/T7ELDFf97Ow5U1r0xMkD98XT+zcT0dP9vMfCxOqd2FH4yACzZxILem9vDBqoS6ncyfjW/TlWeVOjpsAKQq/zPN2Gk3Sx/bgRAvcAmU72OZl2/HxCjQ8aBApSA+wNhvDmibdB/gEtn89t9lVjGzSUl0raC4Dj54b9punCe3vqnEmbbM/NriipmmUb7u3j+mSTElebjtWlbBKRSQGB0XHzHtJCmla59CVJVm3b3xANXD83mNgaD9non+weLO5FlkYGVndUpTVpjihVZjLRt5HNv3lLbhryFfaLfKYjDdIDZ94CmjruoKoTZyf2n0h7Cv7pou+UrdC3FX0Kvrw99CwSKR9nQ0uMZzMy+f+yTADGu9hC3BeX1/Deh1R4SCPMpRiSNmOCkFTJbjYQvDTVDRjc0aZYY3Hek6WizSYmRun+U3bC1M8fvcb1G/qdFf8fPmpZauUB3Dtldl7o7lsmmudHmOzErRXaBemaO4d/+2W2CHuBsXkxANSj1kCecziP+FIzguSVfeMnc8WYw389UF3wKJhP9i0Lf6sVTxDUz8mG8CeNCbd0MFSI3r0Lx6v0P6YmeSaBs9rfUQfqZBUTMpQZFt4Ei0rF7FG5cjtN8HzheSkazMKX+asUaRriDsnI5uTCSULkIaW63a9dNJSgU0yW/ZWERcI3+dvSAP9mybcMWjqHis0QzbB8ROOitfMHjgbwKw/cOqNQWeJpdk7qCvlnh0yCVSbunZVHe1pUw3Mg+EJ/Jeu76ACRhK0XapAV0IixEEKYHFQRIbGeyBpMm/cnyuBiGMomAZDf0WGHU6gvqZgpvo/+HQJzMTzjMx2LJ8Gpsvt08/65iFYk42IsgC9R+zMi4y24NUewTGg5nVKGh+z5XZwZB0eYGYZ5GNHbp9WxIuTciH4jLOd0Y5N/uWapoSfWGE+kobiiaqaHufj11KfIyPldQnEZlbrh4jCBmLr6c3Vpapy6xZEp1+3v9YbxtD9gMZ7DjZUdI/bL2oSda8K0Wj3AuP2xK7adGc8qUqNaOpE9eaHVOGKesv1/wY0Wo22h/7UzL5EX+5JzCqVVUujjBoEQGNZ7wp8ipJ5YGNbJp9Ya6OQUC7NIs3VY00+wUrm0J0DM0N61nEx5gOZXm8aUUZbypWMi0ByILIf8GmjWCjjGQQm1T1nE6DQFpscSDItppb4zTDmSxmBM8nEw+0C8m+hSnpLxywl/E256e+uObNC9MDNPKN9dpm/zltw2tew+EvC4n4xYUJc7p21YZfa3Nm2Q8SXwCRav/n0s0jZesrtLOXxgBV8rTfoiKjGl+EFuQpuDomoUcJvlYbL4npQBb0oK/MLguJvmXQCIphs5KyWQ3STxiTpqEuIRjjvj9vsfKQsJ2l+8EfS3FnDOV1+fM4l2zQLXOP1qncFOjQ8aBAtCA+wNhhiO+rKthEpuzJenDTHO035e10rTKzXV4wY/NqMmxmYFW9H9YdyP2ur5OORf/h9jaWnVBLfoJwQq0AaERoIkWNjZf+daNz0b9JCbRYED9GES7YaHqJSTB6zLYBUnAIIV+RttMvpCV5xkhKkpFBewBCIZdW3KxhDYrUU4GWayMnt+JiZacLovCLDWpCuh/b6lTV6w0aFsFUYeygrjyW59RR1XnUKVY5HLmuMA29kMMlgs5lPVuWuAMSzR3Hp+IbdiOfSJRfD/Mli6dIGl+1BChruf/ezQS9MCh1iAiMm+XfSm/O0eL8gmjbFucN9kXQgfv/jwG8dMbfBVuSV71uRghXxogWafSGql0Wuu74vdkHpGhkcSNj9iIMG8u6KS6yXWwimlyoJvPYhfvy8JkQWj0dFAMPYNCuaHsb++wrWivFGGHcDg1aEeGGGUWXn3nfPXgJuGfsMnNczUfB1yxzLQV7E3p9/7zJJKBYkrfdShZRHkdfuGM06EF4fyiSLY1ox8dK0/TcHzTQ4KaQQUTP21MUSxGNtO4QyNVgKn9u0eM0TX6rv6P9V7x5CfFMDNjTl0KDzr92ay+cSZ68qc90FsvBxu7RoZFY+CTXt+T3SyZrQdMTbGLzkOQm7URZNMzijvhF9QNMfJehkrgd4M0Ors4PGdXYHnEo8wBnD2+/yWc5+01NFvCw+qoUhGs1v2kWvzYxZnr9DN5H95dPaDYryMoakcnsScr99Gh4rbko7LGJj62Kee5sdDAoxnKIulOKM9LSdNDBL/bShhi8poHn6ZD2dv5YyjaORobauOP5WcODBqgcoB8o546LkdlzmDeFvuQ975VMbxzsv8YKwMVodfFYZPp5l56dFxgyaKUZ+Lwam63adnoxBML3Tcb7Jg/vwSEqPQ0uaBlBUIDimHCRWfqW/BK5yUPg4B0svyHHLXR4Te5IqSy/Pejv/3j3IX2SjrIk95IZjFTZPkkVFv7ztArwmmEfMknqFBRzSmD5WV+lzSivYyLjZeR4aundFCiVq5NV/VhgQpMNmj8Z/erKgJfhGecD64E2iCHQhSFoOCb9HL7fsqjnsbb0jIiiydH+iwGN075oLj7UpcLSqvi+FfC5rvYlwEdhnXghcOsd8JW+CThy7OPQPkCSJ9R9pem1J9MI9mQfwohL9WyQaEaDzDNUKlD+cyjHZnHo4aKG1PoK/V9f3HFfK3SMONZA4NHGgAqE1hY2xzGBZCAleJMuOZ+s4mSP3O4C3lmt8KFwezMGe2OeOUVOE+i7a4RdOP/ubOjQ8aBAwyA+wNhvG65t73NPs2QG7zjDr/oowjpc3wceH28fg1//uDeGWyjDM9BPbntQA+5QNd10KWJut97DZh4mV1M84coShRdTgP10mlMQQ+euXVVYRMIYmF2IZrpmZdQVKbms3qdshxKFSzZC9M4oXRD7JSRmEerW/YK2rN9HukgzdZQxcF01iPO5xKlZ3duRVxELPb1FNXc9q+5fu34S2CH2Y5TRgLmppJxCNhvxC/c1bLllUjc/lBSa2xQhiiJgGUhGOiHm4xD9D0wXYRoRyVQbfQr5Cb3+XI62BZf22AsN/M0fVBwvMt0BgWXXYLy7UBQQ1DG0zO+Vor1CBGZNJDr+PNE1W4wvzMhYR84UYNyyLXiOGlz9PHvZlstIGCq/1rgeOQ9N+YcGqYxNlLBe0fvmuheZgAaHSs+Z6xKsDMf/I8EvcMurWGKERmdJAPnwrv2nVJPuwe80Tq65F7aeQmLwvpvx6wPkvOnbOcmi/ySINA7N5QtePWKnyQt4IopxY8Peh9SHGUfE5z2uIvyAINHESzSFLlzmyU2mosHMrFM3t428tADDIlvg0H974JfeC8jUNHmEbR47VKN0qSH7d05RcIgl66x1/pa/eBn3E+kxJyaFOps32OYk/MmdmFhaDVKxXQziXmHo1BLN5AwtWa55mzNUruyvfOpOJhklwqByOO3YRCLzLO7n/luut3EZ4fET2OS2jwiMMEq7SVUVzQ1uXDjBmDSBTTbMOrs7FPnv+Gs6I4wB3VFH924TFjgUG5hFPZYPhbW4qFQ/3lzTOhj2YNX7UAWtVmNZQtc50ZUKUgIvd+JzKSdYF/722b2JuuRuY8zVM+3suk/56CuuBrAB1gGIgx5YbYc5QnZoH5U00QuNvqIsKV2/5eES4xOhYxTk0e3u6Ry4dqDpqP/wXiF5eILhj2tivVypIBAKMNqRQyt80VCddswVTD2OXdQsm5RxkCkNNfP673m6a7ciRYhOO+2iJrc+HyuQPDevZSlczwXb8gb5xYMkDYNedJa80WIIXDA3fgt6BZNNsu6JQLX/HGJM1ckrSlz3/Cm0ROEItC2h0B2ZS0YP/uVwXlzxhDI2ZpxIB+r8Pa/qdKOqxB6lC5/jeQiYekgEcjRMWBRkdH6+t3SeHwgR5gIpCko8OGWTZIJEOZKg9wEF5+alK6CTW7VnqwO/+ZSZ25Lk5FuCDf5LzSymeoipye47aWsNX2/PkMtvxWzKn+sojjExkJt7GTVtwrawAYG4j99lrlTyiAL8D1DQ1FAUvynLVqkYbzapd1V39WjQ8aBA0iA+wNhvG0uDG4KTyPrsPL+jNEw1Cmw4eUMie/tw02sT/xfzN+XHyTG+7VFE59cN6FJOV6F6iByOATQCRR9tHfqdBEtL3eWoFxjQoCH2Rg3TWIvvswxpU/Xn7GySiKt6xz0FUTvQOL+2lNNTYFyrUB3EYccLrdt3iUtL4er4zrziEknckiueztvFvd/VxLcInc5NFRI+w7RulSjemWmsKxhwKjzxhPQ2p2Q3FZzxSW7TBWNQG9ssyoBZmMDUVNGoUev+dKygfQt6IVkwwNW/qWPkb4cUictBs1hZL68VjKly+PQ5jHbxhGjZn8W+YIiBEJsZL4KkDq+eB9CuMjaq+kI6TxCndn34QFgwx8Obtlsdi268j80VTTfqTZrDRB5PevVlqr0ypVMIZg9IZz36EvrkdjhrI+Wpgm9jyYNjwfRml8Gn2G6snkNuchxyfTq6noUP0fj7iKCOlOeLGVNvgeRJPbpiR5W8aapC/9uoQ3uTvgAJ3JHN62UHOAO+QjMHRpcUpMZ/jvw6j/flpMxyvrOZyGRJrBLCOwrAm7gFUOQNbQ+8DZ7UmvRdCszbBdRx6hAYTjBZX7hyNPAzkoTgsn4BUxoJ7MArP4V8tztp72BeTgcwnewxIdw5j23mxm2E6rWHrJVZzNq6440fIMlI5ParY2EVje7JIVklgLUB3a/cOgpKIql34mPITHk8RDaQh97K6wwGfUwOqoYpJG+NRGswggF6MyWAZ9iBx3dxdbllC/BP1RV2bKheEo1b52TIl3M61NwqBpXQmdIpYtOKvgJr+Kif8c/ApRpgWRjEzoDh7FuA46aoTjW7Ugg1KiEsTM5pn+x9t3uXHtSI8nI3gP/mK0mYbqyrSnDVVQJ+zOomOLAzAmJ+1/+u5CK6l4szdguxWqkaceXTzU1xP0cBNhnep0Dix3g9WvIbFU8XdoC4jkQJFawPWOiawWvrtlvecHnyE7IFre3nF62NqSF137K+dRFLebb7CZIeoFScJDCpnWJM9FFGEM+HBNj6eEW5UUKT2AOLNBxnuB3HN4GwTELRKGLF5ttUZsZDhLKIZ+O+PaA61IBdOL2bldk2UOzdKqqPlpCYJ9/59mApXaSvfYzvf4yxDSCAeuli7/6TQlGLZaua3z0yLsYcn+XcApXPMjc1DQvitBcELcUi8OKp5vz1HjlIYsgVMC7FNLm2KpXDVtw9vY35je7CbP4P4V0B9ZI1BMawhrAKO5sWR4lxok97OpHkzf60YmwHLLTthpidWHmukp+tDwqhsymHY2UGkUm6X6jQ8aBA4SA+wNhvC27UVr7vUlw/d6EfIj2HvfQEkhLb8fPRhzRA7sOrYKVh2Np+uSfPf2tIkkzQIDNPtzRjzCefq8vK/FkJ1GP00erZXAGR+lLikVgmX/r4wcdjG+ZCUOsRODhNULc3SvVPthWduyZtSg6E6uP5YqWvw5CbdjUD95hWfvawr+hSo3mJ4NWg+2RQDfuLT3h4ntNPM8gW7y2o2zP2Wllg7RdrGAEqbkE4WGh/ldR+kDg482Rd4PpcBGDBxt9DEtrvX9R5Nkn9My0T5QaOfRHDoyQsxi4WzWW/0N7LI3y4nRPWBgW1RW4QMsyuLBRtsa4ypNSfNj1FSxfAU8zNhCgkb8Ek7cwBJSyMzVhBkq3695UOuut+j86NIy20wyr5VQKKOcNiF/WnYuZIIBy4yHae68ZUSIgMkhrdLM0Ka+dQicNmmG4q6Ne31M0quajv+k4xfN/Zk3tw1U5sbZ04p2HVz2zAGVoHZaJRUYiE80QDsEngX3WHMzHDKl/g0c3a198yLGwXGY12Sgt5JXUVRv6kG8DZrT7mL7g1G+pvR/HwvfmdIRF4uT/qFu0FO+3Gw7HsT9vQKl/Zb4jquaP4oTTPOx+eLAoJT+2tKSvIk3RxfaW+PxE5RrnW39x8WOwXVgfquVjjCwKA5r7SnXj5UbIcv5CzINeUOpQ1zg6wVCLlhvwgL+sQsdzlWMR59yWpD/K7Ap0o6CgEOPT7v/tO4MFqKxmsayTJ639m9GZDY1aup80WVg4vJ2Wo4gpNjX9oZia69K+jnV7dsNscYqSkUJHvdjEVWjHJ4/4ouoMlB/Qzlhgux904dd1oWrzMcM028A6ocH6Q7H/8Cd9txzQoZ72upJXYZQY4URVXfMxsS2GKW2jS0Wnc0FMRdxzXhC4BCzeoI3XyYn7Y3+CTCs50hKtuHQIp7GqmTK0/2xCdqfh9fgE20EG1Nk1e1TXIFT5zdY4dRs/i3m3pLt9MRFMI+xlEQCQY80LAUNLjNSFpFCs+yYWnTVL5e8wOw7Dz3QcFKkekZYQXrLFUKXI5oDmgDJBlAxy3Js27FhvBhd6wq5Z0hGN6IaEkmof8EfcN4nZS9suzOkuBaQvjrhG3mI9fEyLSAWF67rROhodP2vhYMQi+w7Qg+Ok5bbFLjQO32WI9CyHzaQXEq1/Cjcs6dD6VVh4iSwWAWE4UWjBm1YQNPrVKdECwh+A7Nswc3pqQ1h6xJ5P3Mj/r8nD+T9gmLZ/aVubRx/abuepPQm6Y+dz9AGBR1R0GP5f+QevWrUz/YhmKlAY+HmjQ8aBA8CA+wNhtknuAsvD2bmQKgWTvmMFi+C8wTR+QOAucj+s5r+qaxpppOiSwu4Ywpztd8VcRJ/dUSk+J3JiAeoDIZ0Z+M/Shj9Idwy+3dkFxJXuxzqs5YeJRCRps6Ua8CJ/2Ud9S6DOUU8aR122OLlWsygjmr82OghtxPxOv5viaNM/50qUpNT/Od8S74R0Xz4x/Dm8Ljejyib4ik9a3e/SWzDQy+iqHtMETpn4X8StfA7v7R+LzFiJm8rF03XyaXWL6o0ArYLE+bgP57DGZJiM3oHp2SkozSnBwWTh+yifT4rH26oIH/pMsQdrpPpzGIcl6qJt3ub5deqQvotuX4HxATehDrtzYOPe+eYS7dqBH5scm9TGLFTYNJQv7a5xueryneofeI2Ye+WpsLVsJk2EvoaUTbcQJ2xOfXd+jLLv8/IHCHZx5WG8KKH02lquEHOZtvYd1aMl7DEEaogCEEOjeVkNnsGjNQqbc08VpsYupJdeyEKF+9RIbp0HpfoHhX7Kz8GYrBLwM8tTVW9KvV3lb07oLRD9j2mB5Yc7obeFkEmOKMSFQ5T6wmjsNtfGIwh0rMDtxlHucGj/qyiyhlexYoaw/EbXr6knV87RnEJTPhxKcJM2mzWE/4x+oPO+v94pGPi4WnD6CB2QPL1Rwva46hpvQDEj1zS7ipyZS+OcA5no5Vjm1AIzsbFOhwn/bLB4t9MzGvHJ40Nzo6kZzP0TC7BiUqNguW00G8UA4Su1YOii5Dsa6OZ3Blol+OCVm6Q60Ih0u3/janM8U9ZjBUolkyNyCyMhvcJxIZT7qWTeYyFOZOiYVvZ6QRnfycVDmo91VG/y8gi0yEhnKv3ppzDmoLfE/tQ4Ybw5r7hsC8FigwR4CdrCoRvSPq7bdt+rHL9jJnX7UeLsh4VxuHLo5pHW3FVktQwqa4uNx3ZAV5zaaOIfNkmJJ+LxtmJN6OTIuUdsHFGlATJB1SromwJGwYrSCLeDVpZkLKNmO0w/QQCRcOhj9lw4grFpbV1i3vRIySiXt+pmaVu17uqulhVTHSzhc1UEZvyL6xZQ5iqZz7nJLXwECfJGPQeapkd/RTy1ep0IFK0G5a2Wt8lZXQNa/MrZ97nv6V2Hu6TQXIOBmkSYUlsltx0iNExn21puU8/WFBlo6gBXMiR6xIuBbKliJOcAy+gCaiV/Io9qvAdo/mPMfiwEykC9JksDYK9LNPIc5Gv5AaKRwQMJ7IqE6Q+PDfz0vn4fqcKGipU9LKUpV5NFocJvnsA4fiYRzp5rjMIhHHxUnYhM8f2jQ8aBA/yA+wNhuLAcO8wtmsvzlKO3m6SVmH8YM0SDXXiiTWxs/9CT/3tWDu+SudH45SCWkkGJp5NeU68wNd13Ke0XUwfIVjbWZ2xQ/QgBoKL6tPnB2NiJyFKDeCrLqxYJO32YPSbaGiOHXOZn1VFTsYC2o3vuimoI9lybcLR45MB/7H5gR3YVel1vsglk0chSMmvsBaTYoau5bQNBNGFapJHVFWG3f4nbspcx/RTfc5P8/mw1NyxIO5jESsv1VTSPDQXDAwzlBfi0DgP13xTpp/bqXguv835sPy9rfblO/52iUJKUlEoJVqhTfALX75DkGwF/eamDSNmVQteSEPVwaU4mSawdMCZbSK/Cqx+8e34wml6pfJBWTDGzTwK7YqDIOvara+xDBlx6MsJxpIErihn/y+lYH6OmVTD5gLAPpBhNzfJE/YmhDWG8JLsjo0U6nNXMJ841jb7aznpHy7RsLghdW8+kuKSPTfEFSOKOfV2HPgWkoaVyk5noI/9wXzCPwCeMoMrrGsLYyLsyUUNwwPCl3Pia870o0UQZsX/wV/rIO0cLHIfFBP9bAoAiNcnmdfavIL/Ae4SkpoAy2EE++oOfA+wb1Ip1IWcNkArUVwszy4wFAILws1XQ7+ZicKUeR1prh61hl/+aADxiwQaiSLbmC052cX+ii0LajhkYm9ipKjaOD0c/D1E4fBBW9awHcRXPLtpkmXPW32FLOPGNyrdPh5m4QH2EXgQnQgHa7cWTE/tdEwUPaEAmPLjMvzwIKlM3EpOd3tTu0JSUMFZZvd4dYp+7NzIByqxnAYuf9nk/KdkUP28pAZYZJ+cE06Fg6ZkX2rUqPsvGDFd49uY4MP3eAv3kv78XYbYc5QopHnsiKF6v2oZ3v+JQTDWKKSmVLHbtDQLOA/7PnVnCE/ucwPi5KJNbthExkpotFFsIiD/ly9ZVYkDxXqQ8yoSm36jBTKxT898a2rl+Y7n7+B+8uHl0ebWq9AXscplepKvZMxfPI8w2EPSc1k1hbqWOKthJZTlEz6lG1AthD6vl5W6wzPv1jDwJglXg8kAWgwK2nk59tVQw0lVKDUhCJmwW/O7zpWFElr26MdUqYiTGfuiT00itTn6dorzo7QPk9yG7/DwHLTqD2/C2iOlmpdfg9lJCv6zNhLmuPTnEYTxGF4jA5wNYwOLy3geuAfq1R/T4+X5MVSnCgFGfSMwIMTaKA6WLef6o0smjkmc1fO1S8Eeb+VWhCSuKbcrjXO/ivUQVTh1evUr4F9KdNf17VLhNSqanUO6VAzy/P0SjQ8aBBDiA+wNhk+GpxwQ3IRap6K8pLOcbbI/XF8wkgwiKBgsVirhH5OBLw8xP3TjhSeY5xjtxrhPSF4uRf18OfvYO6EtuJq2pRrGDvJwkGeg/kvZEQQYkpvu1Vi7Q8ogUiFQDaqVYm0+qcpJyZ5mkPaRj5QC4lNjKYLT5iiuxSaMeVB+6TtuCoFd3QXJAmTki715HCedVsz1CQSgujKZ6RhCIPcJLyU2eB3Ezo3fTkPCaxwhUiLECA66MW2mBen9Hb465uEm7HerIzeq4fu/rJ9jhoEYvT79yoHpnWURVYKp/MSuN8rlQ2Y2TBewX8K1MsfZ0iiW3PT1ED+DEUJJExWFmGePTvHehi3qIeFAhqDhUGO5NluUDqcl3jelUGJeSHeEJY0kR5OEE/S1FHqF50Cxmgvz99d40Njs4U5TVDzYKqU4CPehzsmGT4bAA814jumfFSq/R3iM0QMxsuwX1vqugsDuQ7wRJFDzDpOF7SGMOoIzMNSyjZAn653o+Bpd5DmcNJVjFbLeic3Sn/psOfH+VJ+CVlnQ4mD2Kn7HI7PrmnzA8dHdboQuiqKhYuY3LBHTMn/ozRy71Vu4pNlVO2u1nl4wxV1nd7NEPPglOOxnKhfFuT94GMEMFTH10cv8Xx8Bzkp8wcIMgRms3cdpUhMr9ordpsHMZ+P1rwConX1xbYuhYryPP43we2+3g3truim1f9uqslsSaT1OpTgnAF9Xi4lPyJPRx/sz8YNTlzeaHNK8FSsebYH1LGAH3e+kaZBiR9Zw93ar6a1kTxlmQxBSqMXKa60f5KVYlHe/dALT+1L5Ly/H0gjqc9yqc48ttfxNoDc4GPafeICWJQgNuJA66ZIo18HX0Ybw4NEmNwl38xwAoCf0+Y/9X4lGLcr7WoQGfg6HrWHDLjGIhMhRrYGBv+C50IEK8EyTzyzN2mLGy5iIi/H/a/5qTBbF18fVzv/YxLVYAfCI3eTVOFwJl3Yn1UQx6HGj5FcERYeYp3nNV6vIeDzsRSkTNP6lGLwuFCu+zHDQazB6ek1KR9TMFkoVl6ANG0kwo1BHBOkdWqM+My9JhvoiBYyeK5E45stnUnqVmblK1RoTEDznwQWp9uIO+VjAj7Y0mp2wnpLIDJlDLnwb7AJ/o1mQbP2l6N6uNLL166oOgUdqbgcq3Zivi2rh3YzRL8KGNgcs4bGggeh9uHFGtdNHqa5aFlnMgofNr0QBg7Zke676fv4du0FDdHKvRX5xEkmlC2/eSAQOk7b1aRiQXBnDVdNKq5UIsi7XE/3Mj1VwPwbKjQ8aBBHSA+wNhvDoR/QlJ8Id74og5PFvzN77lDe229e4YMjs6By53w9uieoodww7fR6rLzkPwsLunKwgU5LLcRwSPL0onbU8YT9xLN23ioHbfyo1Y8sJVA2QKOQ+q4aQB90fOz6CG/9vCZ9Uh9xxj4+AGwRN3inClFyI+KIFhqtfD9wWnw4dWAXczTUo46LJBngTYWPXW5Yt3jPFj64dF5ZiMILPpDhu3rKeBG0YMNg2UoeYR16/DcPxnmcs9JrDd17ZHuVpQlgKzFtlOXjL9MW//T4jB3/Ctc+5LXnTWcHXUmCpPUb5bhpiQoil0Z/XxTX1QtFpMBxvRjLhdKoWDeFoJlWOr+93rHgeiWShMyn8HvIjOpdl83yiOaoMjq38DjkGY3t+OU39VSSWsbq+a6dNReu/I22BxTihb7A7QNBZiXGg6T2VhK2GT6O8yrfqKVSPi+jXdWiUVE2zR3AD3GeHKo0otPt0PbA4EKwm7hve8Z6Emm8P7BSpUB53Le6BNLzpH+WEnUZ+cts7AdqVQzSre57LLs5CEIMuOTTXl0+tgyxo0IfRDzy4LDQBg/o+0ucSmzjLR+8PfspG9jv5zdTTmp/0G7/gryTeGUQ3hDjGCeb+cSi3PNOxUSSG5EbNvGB8ZOUpvnL817rUwS/L0Rt/HMjSm7w1XB1DXL4DZSWHoyh+qhVARbDvbAT9BnKYlmRi9ZPMyBGvc2Fw3F+DzyTQ5gRMPv+pAcli4x2+VVNTIMWvhoMwEGFnR53DVUxbaibO4T41MZ3xtjFYVP/nT6IntfFIhEh6U8TZx2+XFIa9w8/sfB1wecguWd3OyR3heliaKDNYB5PLu44z2obZnIe3LrEN8X6nwYYd+hwx68Yk/jzr4OE8c5ioiCM3lKxtahD67W/dPvIgAqjJ+/0rfFU6TTezLZBIU8VCqhcGMCD90nqVe8CQj9GuChhYUdKkFfl583WjZ9lkjZOZyatVUK66FSb9fk1gMXFUE4WkzeI8OXDZI82uFUlI5YKtdbsJAEgfLyMIZuea/cj5oVLqV2DK4Cpg4EQMPntMDfXtRyC3Ny9wBcfZAE0RFe5bB9zGDP7m/dK3lEu+8vJd21F4K0OxA6wHpIcvJHKj3Mm1Jvp9Tj2LtBSX8KepDG69VACHjxnYybllt4XJGWZ2tk8DymEtEVjvMrDZ2RjG3MzaeGX95wm+QA3NNG2c8mdFtO7PrCJaNHUG3y/LqOg9lTTZ1jFWmFcnf0K9oVPJYXaNuWA35g7EcktJJ5hvFX4055Uq2DZftu+9mDaOjQ8aBBLCA+wNhvCn+IphW8EHb5IuS4ZDTuOmhiWXcS07vPV9HmD+c/ewwiR80bBsEOiYpJhFfA7i/4mQzuzDY5mXOKJw2YDeE1WvWsEQVSLcilSdJlZi86hC70tRxqsO+/jf4kbFMohSoISgndczSE4M++J+p44qbYUDLNhEnts+m6susjCYqiBQGUDwIsrGFhQheHADhdifkUFlZmW+T9V2RRdHCHyKzVObbGbex/xGH5CyoyCK1OWR6rjhgChfoTDNmR/4JB3JWap/gc66a48V69TkWHUtJEun+ZvL6YQuIdWaW1lC+GAu+cVMfz9yXi/06YXtbCg4t/aAJhsygrue+ExP+Zlv9eNUO7Wy4Cha4mvsNaUT92lqgKDsJ4f+njacB6zNu8D86nuCQw73qzy93JUtIb0Al9k7bbBwQ1KVOrrqh5mzpumGHcTvSXVLQaD/yi45gd0xRFk1EvYrsbQfylnhkqddGvsGQU1RdX+aKVRUrRWAPddexy0iluE11ids9Brofl3tL89NISPbu51YORaMuFQvvOkYiC4rtj4epfzikTBBrBu4M260wy8Hk9UKyfAaKpFKo1LCOI5T4WEstxCdlIU7Zqj+/9LBnqu9GuMHAoF/Uy+gVDR4QXjGvhmj70Jo+7NdfrguGVWwoNOyeaZ/Ry5xS7S1BmONXsa0Kn62ObDmAjUWVArRDp+aRpblsP1VZKGyzlCCcXl84gngKSenGqV7gua+1S6C2A8tnXRirtQOyfzLBXRjw27vMr4I9WPFhln8x29jT8XW9GiKo1Vq8lhJADvWmXpZlXifLCwYg+JN6athiG5uNhDBEDlw7+b+58FCUjsfJYG2yIc+ZihTtrntFYYla+HJQ7EizRmR73A6+h9vM+r1qiIWx23kOalZv43n4OpobUFSuBGP/DwpLw03m9mBIhGeWtpdeAh3eCbCDLQBPPJnYP6Et46sSfc6zFEfqUhNUWW1gBmCw0A1zRRKu7ezuW4r45fHzSvk28u/BFC73lDnFAQxEwtfaslmelwpSs/eFSL1AV2/9j+hEGPC44zddeDC7ZlB8Ssd+N++kPFQNRnjpB9zoNWIr/gPmght8Ix9lyBqQNplZCohu7BZF85zuBJ4oYC/DIK8Kl6564ZziH5lneLQqez5+yEjpN2YrVefbZlctyrqRJ2UrdGFoq6EpzKAnjZDkK6cGWF1132I0za2VF0l17n3R5Axf/AqkOpAc4aJyHzi1Zsf5BOsL6XfmeCXgKIok6ICmQ2fbeW+gzQfmTb9EgQALt6VwfeSjQ8aBBOuA+wNhe78AuYb6OHzWEnqdYCod9BzBRXuOafaGQwps0U+ji9WdK4JNrgO0jXY8duVTGS2d6jd2nwni3bXtXn6C9rlrjSN5E1TtWB+0sHSs0ALGOpO2dubxe7vzVf+7OgA2ehbkHPxjDPXRSXJSXuw/1ZM1luHu5y8/prfQzYjdGD0t01gijXJLKbgDFsxDmMrYSCAAMyM51Unvpu51jqaCInmVqQMNz7k8iACXKQ/Q5mU9eruFCPZCaPi5yead1CCgWqUGlpymQ2abdgwZ+d+0oyZew292puknRecD1JXk92VucaG654bPkWlDMgZNjjEv8brhGLjA22F9leql1yO/4i9aNB5vfdnCZ1nj020y3vOIu8myeM9Yf/kimyTEUcxuqEKqKwyUgjPNgbCIZym2f3eCbmxIUyIRRSP7elneSjlLDmGKnMV4J3n6JgOsPCcwuox1iYTcBAP3cTCV/Bkwlh9T9qWU+czfyYGEA423PNbEcagSJbPlC+64qVd7mTRHNCuOMU0N4qEWOnP42viXeopBHfDLxDRBmARIVwJVcE+Bt3kfP0bWd8JEgaJwceBlO6+sno7Hrt43FW4AnWelsMZcZ3zn4qRYRD3X3OlR6b+eA40lMVOj6hyTDmd/hm3vlsDBHVtii+m99M6IYR0Jqdr89mPKjQcE4rxUeaHsir8wS6pCvyYx04V7Dwk2FlZKpdz2DcBSl2JrLvvgWX03/tgC7QV6nmR+Y44gNDFCejr58A9KV8dDWusEpojS1IegAFvpTPvpp97UC7icd1TDIUF7ncGFxPtXj7m2xmsr0WsubUF07FGNXUF5tc0NGpYu1ZxkyryE0vBUpSCwrqEnueXkYGrNIEu4RlkOYG//N3PY+aqmcMGN8cDiK1b+WAPagWNwe+9WnDskknP2brrF8Ri+Imy+VqTZwVVnk7uG63JmNVCAXTNoIGDqe5bWYl4iY4scTSAvQRqnnIs5i9G6s1Wn51eB4sbM3HPLa6m1q5FlYVx0JLKUsavm/vEWXNurFjX1hVJZvpS86nIFztRdhShUdPz86n8KM0f8JB2wAxuXQyazS+Ne/Bg6mPcNDDfPBzUJ0WcXCGdAVLdfggnewZl2CECw8M2apAAavFdjiEbsaQEoWvH1BddEd9c3iMO72sTz45iVBjWlTChkexvOJ7sPBiTG6aATPeQ0DWyrwRFE+bONqJS3tPJEmxr1gJ7TFRWx2zfM6Lt3d+UZdO1uE+6EecheJ8ikic+p31St8MjTuVNm+cDKXiQ1K+aIDB60xJijQ8aBBSiA+wNhM3T7bVULAf54UBO47UkxQuPylhiUg1aM7dVg+p5MT6lUtT6Gik5fu0A+jfAFZHau0XTiraa7eXCn6iOCxxAaEbMB+LsqozaMg870jYVEvk7rOin7axzryP5Ze8CokZ7sdThq7WJW9+N069oImbRZwDxROVk+rQ3Z13QSRB9q0Bfkr/39rP+AqZG5nQMsJXNCHFM8b7xOgRryjTDBGGXNkY2YIgdmvE7xhplpfF1937MmSW4fV3kgHTx9v5Nb5KEHGqaWHm1z0IRFNZxaOzsBsD/ZMVUR+/pjUxB2ahCPfUbqS/nNj9vn2z7FtjsmKviTVe496DujtHQ+S4Ug3Gx68s8YCzEMHMGRnSVw/5Ijm6/Eofm2/jHVEPeuZ8ZM6I1u37kcU8LK9HyLEMPNgH4kNtSQrbJ5CKc06Jv4/xGr7WE0L83yT5YFxcOO/TrqpNqAkn1gE2/MPudZrgG0opSnzBwCLIi+ZyXqefv7ngXf1QNVBAnggXusprn2LgVO1FR43GSdU+k0beW9/6PpjQQBa9m6B+UMeqaDBAuzwsryk5EZipDbccFC6Yr1VmqGTxmkvGwgkeVFnB5DhzR2MAkDNxmQz4EQk8chosuJgpa9W6yLbepgdGt7AC0x6R0qABm5pjMF+OCWTDXScs+TrOjqWKLv8cGNHloLTWxGFVG8JT1U2DoNh8q7LkhPlJ1/dL3K3+GCM0/LhmY7CCGlB/D45YXYLPy6z4PVHgldBb52Qj5+C96chQOr2+LEel8U64BAeM+mihSIMTOF73ZbTgXHdq+/vOgGWZ72juo0vb5IWFPCSWzDlFQFx4A/oznS38ttGEKgwMvuNA3td6KXVAMiYTYJuIrEKuz/GqQB2MpUGozyMlagqynUjkQSzuwfsazh5ch7WsvY55/h+6JQkh7cTc4htJ6Gk8w2THTwq4Wv1ZCJKrH2P2qfWA6MSKopwNQAKmnwrHa9dLgtSCh+Hg/5+M2//g5NAfiBoTV4N4KasYt5nQukdWlj7f1TFe3IgPnC7xV+u9ZmKHQew0lsASqGngCubxRqGKP31jLEano6n0BcekT2Hq8ifrry6bI7ijifhwEZpuXTwdGH+aVhp3/0ivUliR4kr+44ouyo9kZKe5U+1uTxvLakaA+9BKHUk+1V8oiOerdfNf3+ZH1BOZs4JAJZQS1qeIIZpPRlkgO6e7IZjH4fHgVfAj/lkYbmDMkXiJMZDJsyzyqZTAUpYU2Kn234SA7eVGy97OV2ptZhcCrHFAZFdsYlKX9EaLAmBBmjQ8aBBWSA+wNhk/bj73gJ/zhHzJ/ohBXyWES8rNWO/YPz+3cdO63rJL9m4i7vlkCvaqKh1rnPdZ3EbfLiMJRipMXrw8gCAynxpZWIzN8hM2FI4bhESN5gmrMYfJfjPOcLaxbBn2vcr8k+eIZ6M7vHaoECbYwZuxmnOUUp36YQFfjR3RhDaFEqeP3NlEUC+e1/GSt3plK4ka/T3PvUKn7gyQJHtl0ngLkbvmIESTDFKqXSLxwunfiL9gIyg29GPHaB9BZEMOc/Y8fgw9KYCQyXriNsAmxAjj4LsKgU4JKmAO+wbXtLObBO23GHtaHd53cKHXx1mu+gma8VrYcsBaXqFpUwtDDH9oEu2vZ0b9uzkwfZKQCKq+9cVNBr9ujzhgdB+/++EYWUkmw516n3PtwMZ3w3IbV4bDKCPVuQO8PoBzVA6aK3OGESpGGUGlXPDbtVxjJ8I1237FB5CcbE5YmJq3YH7gu17Io63dDrkzpn9ugSedn6F5bByuD3m+kAww+wDDSjcZqf/QV8GLSJzyeMmpVALlB06XHlK3XkU5BVVhuo2GI6gcy03SxTj92GYyA4PsFpspP69ShFNjdk9qZ1wduO8EhyNxMPLsWTDGKKHtbZakAx2p3jqml4JY0ZTKwxEDVVCxX5RD24bZVE2MEZM1hO9vw5WZfHbhHICwP9oVni3GyUCMJaXMiNoxm0UROXCwJnwOXSVBMhUhdYvLQVGuCB3azBPNA0KQTEcWjZ2Q1qtCJqq5g1P/QcT9rhC8mHWAIW+T0oiVfGGVo1OWKa7gbGICiiqet7VELZCtVBfeBxWGim5QnRVbmy4OFn40tAr4dGnl0ArqT9hhIojkB8FBC+jb1FaYqdYbwoqbYIJc1aWF3+eon3NQJah6Hxw3E/f6+wMCYB8SKmeso6vq+IvJw9Al5/aO8hApcQq4jNZJz48Sph/It0N/LYD4NNzmAMAGnpJT2G+WfIjb41PRXwjBWz12Xj1dnU+Pfb+sOYSzB1BLI5fwo583n6DqANrRJZZTYz2nrm0JKQood5tM8/xN21WNYWJqPhmJufZ/wKxEQX9t+iYK8iDyVQdXVpTtNYbkvapCOe9pmo9DLSpnuF/159OcMlRpJ2NfMsL+91R5qdsh+/LvUvRM7lWils4YQiM5s/eoh67Hni9fPh5YVOcCPOI466p7sn50OEi+JsEhQqSonhXpLRPWtKZhkr48VZw4enOKrJ97Q6nhCa82NAg0W6+6PgKL8arxZFeFSWcvU5AuZFHPP3mCgTq39bvvOmH5uQRGO+fe+jQ8aBBaCA+wNhM4Q/mKxI4P1d/KBrnXNOv9ttq0JGJAE1Zv3hCq5h7G7ChHi42IIIyk77zunrQK5p6UpiC0LkkyRhYV0wM4Q2XjQDr63kKqT9UkPeCJ4E/5YpscVYy55LBk5q/5M6mW57aTj6a4doIjLCCDhfy7nDa3H1yEd6PUvLW66ratPSUSuG7q5ksv/KdDAfKMlg9vUTe+aptb96sj2x0tc4hKeMzuwJXwkbV9Z5rQEC3lQw4OZhmpK08TOQyiyNjiwioNlfWUOGMX0wcBzyCVXH23P+Pp+Bow21KZNZdV04C+zwh3UVFA795ho1rRNtODS6+Jc4K8pRZDSWotCmD/huhQ58EPNz/zu/DVtzsnzBOQASuaaGo/GDzm5SAmcoAKHFH0EGVFwfrRIFlL7P3l41kxcUfQzEfCYe0KdBUQm6Zgwa8GGHcTvYt97CsZ54Rf5bOaP3gnLLFyyfW0Sxq5I+/ghZaj2Mmqjn82lMFuWBLVPZhbQdi/+qyz0dm2k74WkvLO2Q+yBur24QSov/lS0y5kmFrI+d8DMKRfX4RXaulNknaEe6KOyMNbDhywRvMmhfsQNTLNwUPsgai9WEYL5LY+ptaZ+myoMJCi2Lf15Dqrt+nq0G/yB+SGz3oq4t8Q8d+qS6+Pg+vdYmU7kiWPfxIYXI6rL1gOUYYvAT+D9O1vI+x+5iKfbNeOMbVSWG3a+259IQjJvPv6Q/p4Uisr+jXwudy+bdvkxyccZZdAwPoRY2qnyRvP/bRNfpD0b9plOFHerOCovZf/OQLruANt9cax7Ji0Iqc5Nfw44CH332M68VFPNcTP1h4r+WqHiwZ96/G84h2YqGshF4tS14zj6ZMS1aYYdtSsOhDr4JiKi6BzVOZHVpbZFr2BF4MdQK4Z6rW1DxeZqmYBEZNVqe7QcAK3wZ/ate5PmqfalQw24IOF0/MGPNnyZXKkoOu/0yJaCVfcdlfY4BEYH+s0MSx7MEO62edzlFmzD3IFAzLqR9X7sXpFlSM8MMeEhn+ObUgf+m79PlL17Rp7Gf6ygNchIwv6XQLpBOh4cZ0iA+uf1zIreFAt/SVLg8HAm68doyowcqPXl94WEScHwq8wL66/38dxAbFopcJpRv+RyuFu4K9B6KvBSPOMOTjPVsXoYZIJLEFYcEsRSulOK8yX8109MfpK4wdPzvGDXuG3aSpToRkBzD+h41uqzeR+7wFfsED343ig7DNOi4Qaqv0dnTvRHiQC2ql0ekrtQrRQZa9qpG+4VuOTHzXdBvn64mMsySb4tcK4KjQ8aBBdyA+wNhh6vtaaQMOrk0B0cy75mcxB0qB8iRGF4HIEllZyTn4Qfk/zpog8JWxEboM1acSRKiw9DMHD3nOzEuwagtmKpkfR5l2IJWpbF/zl34KET28NucQlBhbtrFsCwkXzPjr1pUyKxDiWWhFbD3BnAjGS1rcgSa6HQvUIH4WXQ4zhZ9R0b5ofjKo77f0iq3Jzf2DY2LEK5bFqY7vn2sbEAVu1OSb4p,
lIN1RNa9KD57ZOOLXkYsTZBdAucoPqpKOWkJmpU4McsILKKgecLX6N6iHSOHGv3qTKnaJbBbNrkdJJ7chjGai0M/hB7lapPFMQ2/01tr9H0JD9UgDeFnmR7QsSnjQruq5Q6G6tw1RI1CvHcQG507vDBcO3/tay8sMmLPvr6rJsa55rpHgIkC+uQt6z1akARQ3fO3xrH9tiQkzdB1IWGKwA0bROYzXUMcMVvfuJhBVKaDbcYljQUhifQqPIzATMXHZm3fr3nks1sISqDj7sd2GVHOgGaI0La2Ds6LFLdzzBRLRzInhG3cAibaJS4K7sAqs6tZx/BHGB9XBQDnjp4tnIViCppUV8u9A8I1b8yTBhGfuWk6lytn/zf3jOfUkHTZwX+g50a/2biMHjz4RxIOoiC4+/pCs6be2T1NTs7LuZLsCDfH3yovwNqluQJuy4wW0+1BDmkc69PviYpCe5U+o+3mhIhmMh3sOiEqFH8jyJpZ5SVyUfsRObo+u5Tuu7yKyI/DNYo188g8eGkYBZKGv3q/yaUOMLGkcoHJsQoFXs35e5NwS5jdbyetmkeohzNjnhzZVIgw4akz62KLKJUTyVARXwHsDfLtG2oWVw6EK1s4i/5sMvp769Xy75QoYbx9rpOua8k1uzOvY4F1CVkO0zY8+pdDDzpiTegg4NxzUqdIDQCFfqUB8f31MNEHJkbWLQIxnIhAUseAhhwkmHetssLIGVC9B86zWD5HLDAk3eR8Tfm7H8ZAknv3msZ5c9LHs0a6fbqbMvjP3yC8aucks09RRzBgDroQZg3HgilMkmSt3fj+B+tlp0nYtrx11XbnAFe1mQAfVhDVdSyMld5Fp3QakY7MiwjY6KkBlCtQZdHr1S77b/DsGq4eQX19JVpuHKfiToWwVPuSFgezM/qHvjXc5NEx40DFgsrOpGQoxv40RglQpriDZRg3+/51zza6/eaD50Ge0JR7JhBbSJOIniwyK4OjvVjSvPn7mj9lAp3PIXzdOVxlm2nhZSGKuqU5b7wWP7xOMqwwrd6HSAesGfY9/dJIXV1sfXe1icOjQ8aBBheA+wNhio/uN++9GUZhCo5dmfu8ARdCtioPSABb+lGZ2YEwj62MZud0b7lDffiSNWMqzVQuH37kP/H3llbkNk4Fo2BD45f6C2tebkUeGnP/BzNKeRsFPDAlOVp5moz3+DDuAsKVu0v9HUc55AANWUd6c5xHlakEVh4shDfNBCqbZf43bdJm7Ro+BorbH2Mv+E3jqB4v45fAV3OC83hiQIerYoz9xfnE00aeSO5TzuRcE4OPUsrXZdjBJwR52J2m5xxcO7GUwg60/M0tJ6jpZ0CZ+t6OIpGLbfzF/TGpSGqH+6NX2TsUFnr2+tJgXa0kXnHfC0rSRig2NNBE5kbIqgt+/UerYsaTgbrBVUdFH53IGZkefqvaCbjoM68ENMat7hCwkJ4ITTjsLJtJWfTbFEe5kZvJ2/3OqFHjxxLurGp1KiNQhGGUF4ecNOb2T5pb1npj23zzquP6Dhdel1/eaVlnzaQaj1jqXHWb8f+3bPydCgM3NTKLmGMpNP/RFrQ8SLrHOzW2t92C97pDXpUayTpnjIT0g/+JMHGqTLEmcv5oSVvvyqYN+9ocoWB+6HIx5NBvDV1Iem0C8R2mVRswWuuATe8Rb0zZMkTuWyvAosyH1ZLVtqFfjL+02r1VdntWGakC/sHPJWtLCDaYI19EVXTnZapQqi0aOHaeQP33gn0OD/l0TWYj3wJjFP/04sN4/9usmrb/ZzjhS7Bsa1ZWcFuROH4yrVu56Hg/vq9mSVVc8E+tBI6Bvf4ylH1XaddlOn9eB2MYBILgBDuJVIWIxVROc9Vaql/ldd2yk9TrQR+ljcoQ1FDOcp8+GFoNJ+KzJ/BUopKBobE7W2DhtkMIx9fJpsJ4YYcfmqqvhkptOlrHglwSImyPEAgNZhOX94TOBElSmZPZjNQ+RElyz+DXUxgiUjygrFzQObdgmc/ZYG9CKk/thShnBz5x0334OeH30jLHMCbghGNahV/WNLL9SSagz/hwQM7FhG3XShBcmcS0BMSPsiUFMkpH6q4kcBjOCVQ2vRyrk27qd/IU+tg9iS+c5nanvTfZfZ+CFMWHtD+0lCgaNHuCYuZEXs9pQ4+DHwztwOHTQgW/ulyayGqqz6XXpMpfvPqpgb5oJDmby80mQ+y3h1BLAvlDyD2VJxPsTEOJHRqnhrlkQ1KVbnRjYGpwGdjgaKSqCYLD/onQKK7K2KXrwr9NVUpE5rwyhO3DjoseECMewUz1aTZGVxi/h5z5kHS9ecXLFLzRAAQHytglTVaVdOLsYuP/32IiDmnf3bfna9WjQ8aBBlOA+wNhvHrvldGi3jPgrBdbS4Ox1yzmtsS8442G5PN17bmZzQSq/8p/n7iSnwhYzEzjf6mmDRH/Kj6Y7uIuJUG+mDOoijUoCo+hrkcoyNF51MECu46Pj6cY5G7SZLe3sVbCWFSkXWk7tCpUc73+jpPvCIcPkI4WeSx+et8aDZflqSpJTwq1R3eifLysh91UC8f++EO4POSGocPf2v4GLVJr4i/sXjvcFnOAqpYdAuUItk90UdqongFU5ia04T4VWX/77lCXKuiIBuE6xHq2PDY6BxD3dsnBHNiUkDwgXYbCgZ/85eF+H3jwMWPTpLTAWHpIGCknSHK19yq6GhnHB36BN1u5ysYwKQTi5c3SnBqu+h/WtrETiDxLDUW+D1h1VZbCrlxmvdCQT5AEa5sJHwUrssT+53fV+U1czMYfzgeq5Oh2AmGT7oomngpFwKznJoOzLqO4OYK1aZPr4vd8Fw0/if4CPox33KsmLVHISfwzBl3kZfHz17fx+4KVvaE7qCLZUNK8uUBo3l6NajDGKC8NlOHYOPdJNLdDzhU89DvxgrN5STMKiMq1JVc5GKlZMNy97p/eVmWezkYF/HeTMoKs+9mcu8j144QiFAV0iKD+AMx6qMbrQ9k2bo0O6sW7CK8wuRmVIqWj4FLzrOkMHmkkZ35G6xk6NDOVW1k830d/6kCW9bZdyo0jfLMp3p0fXX75fX371HXPDhqAzo+01kLAqDinIuSK7utACG+ZO/1JT16KUdCMltOxUMAs+Qw1ON1VRlrpnVXS4jyTMQ/arwuAFjXQs6eHmmiYsdAvciWq3eGgD9SC+8JMErwyX/ITg5eGY9aQ9TUazP+Nox6c6lcHcg0xYYq/QKol0GOzdP/6ryb1SwQHOnBA8/UtOs2q6Le4ikrAHOdIBo4OM+6FunEI2fGIOZAZePavK7maWYFEQZb+IeaSzL9Bcmqs0Z5FnwB0hhrqXWkePM+JU+NEu34AWxXahDszMSOpD8H2rfy7+qlg4LijWR9PlZb6/KFPrELntcYeZ/JFamLm/KPwrAB4hh/bqIOyJgb4nVdMDTvSC8rV2UTiXkM/J2twqXNcTW5FRguVJiWbk+lRNQ8LGENsyjhURCoYZwj+a8Q4/kfHtxrHtQgoJ+bJclWlTHC/a5U/Z0YQ1YxRNhzzWnvkVfNL6rejKg1ri9TWBc+nOnSNk82VXsFX4mev8GbTuOuU/enNjWPeF4VYGh5IKfw2NBmFjkUlgbxrZn0RnceE/hTw5C9xCiPTUf8/78ClGqmST+fNCwGjQ8aBBpCA+wNhvHkQpA2lWlr5zT8fbDY1Mj8vEUx0Eh+GCWgROxMe+1pt4wyeVN4OYMg8V0d1+UroTTfvcV0SFIBXsRFkUhl2O+imSDPrJwvCunfYt3zSB7m7x8tmEkGz7FvDsVpe0oBgmv2gxrl8Z8SGz0bsN0N1jsLQlmlDUNtyny9o9esLDr+mL2YIrI5tCZC+kPYy0nZifKKpa1nhKH4SLTr1dv5aPA8EvIVL4RF8RrLd95ZaEIukzzP5Td8whh+sQS/HjNetekYcrvCmE2200v0pQmNz3rqyk3PK9/jykq6VV5vl2F0cjDUELtueuLiyuTnBFqFgS3Eyns3aKmd7cEo4IdwMcl6WaNUw7dfaWti3XJ7Lxh8K7lhjoete0VbQx/BY7vs90icSSeiHoxlUAf+aUQgSilyQlK3cmFAd7l/MWj+RlWGHbRMK2Vw5g2y2iOPBKFSKvEgm9S9bHLyPR39nvO5s93FGkDOI0bwv4If5VdQZWVWw0lSOEHlMY52m5017srfRMbS4pSVuP7LAzuzfDqNZSJ3MOUU5cGNcFR4vBFDpee2z+I0xSKRBzXTUumcHqXPjlDTKL2Al0n/snjFs6mhX3fKTz7IWwEYqLMgoeVqa088Vl8bWsygMXHKZcNOKxfl66v2JRT7kKhVsNQoPwp4aGvf4LwnrwseS89Tc6gp7e0Knz/H1WWOhoBqrQCxigEodZ9Iz7laWdFI8junMmzR98egiJb2YBw/6b4+ZavW8d93YO77JR0EAy9laBmELvXMRxlcgEDLlFvcATslTFecpb5Qglv/obejfXFz6BqVmP3AE6bmztEw3+8mA3l8vjzWWfM49PSS+pjHr2ois1FrsYYdrXrM0ZQzDZ0acvsU0bG3DCyGsYPRoYyFk9cn/coua/bFdt8K6jyJqMe++h1GZWBFnU082Bqv5PYya2P5uKvvkUOl+dlPizqJUqEwnPfkUKfqiMB1+HWHXVG8MJC6jBFRAbQCv1+JnwNcawkhU+LQfVWZ4wfvIvhuXdqmOLaESbo+5+drvkJTx1eEHUhLy8/VruXq3NKSkiTtd1zZ7fRGU2Gn37HYBQUzAXKf7Z+p8P0hLv7WyjVv3q0vDPNnqG7xh6oJ/cbk9V0qrbug77QCo0HVaaAttg1Bqb9EuHXrw7YeGzyWm+AeIaf4juMbCKlCK/5i/+b6J7/kgK3Q4cR26ifHAAiaJ5ie0AlUnaW55X2J6K6YyrFFlJoyO1PdJ6b6FAW3qvJhmturdZph+5vAvVn+etNBED7GtvSF025KjQ8aBBsyA+wNhip8lkCbM2AqbhSDk4ffg/u7eioA8jZOk3BqA9X7Guj2iNultd0SfV0XimufwTehotyXvF8Y8cHMwUQeFEZEWLqlyJS6QC6cY8A0K7HsDnSgcTu5ANWI/339M4xnxAhoruO7lQXQleffuLRD1TmXHcJkvyq1+mBIlCffliq/Xb9B6rqT0f9iBr4rjM0GgdrTLmvtdhXVimj0ji28RCtBOCX4q6LHPXIW20wMHugzyo4Sru8M68Mg4sT05N8Kazq4fzw4MjUgITKR9QHbjWiH1KdmBlKO8CLQVXPu95jrFDd9regGWyOmKpgQfYLflRyoVmGSyGqtv41R3JrxFG+6+POxmyUqSz0DsajRAV3eppmkbV7b5ycZqCN6gNIvnQ83u+RlIWHYdB3StweYi+rG9CzrpqCBn3QQNvaHbKjCyTWG8JLxIUcEBLdN+R0+S1VQP3CAyPwsgTFWCj0FCq8n/+SfrBx/yMSH5+u269wOfqwxteqzCJNHMwTUIrQi2weUKkq8VYFzvkdNsp42XqGRIc9GDBewmSXD/Z1aZpjZbhcHlLAp6TXb87RdEjJ9OghVe0xPfA3n8HK/BZBMIaZUaEsHJ1vb08mIuf7vL+jxS9Cwx3Rhvn/DS5XxwsDBNHndcOhRnMRtfd1fIYHEjFrLpM7Bs9i3hlfmRHHw+bpvgKuE0nyV8A8NGdogTwVpT50AkF8xgYGhRjJ98GB2EkqRjcRdqZlff3Bm5IqdIDjqkyA53Csw38oYlpmO3CGEx4AXMaDZBA33oumzlZo6G15qQci/I3jLsnBDPzDqpnjDbxm+m0i7ljD76NEM947JP+cAgsF4nYS3jQvy4pFnB0zT/YbwV+v8z0skt7MTiZZXDkLDMwh4ofONbhmr4pjru6kUucRAkf3uFnzsWnmV0R/o+3WOHo+rzBKNuQXVLneikySqo624d1+JRJ0MBTdzQhPS8Dn6DbrJxh9uRoyfc5eZI9nzCa+3jr8oDn0kxJlCb019Jt9PlG8jtiFPA97jb5opQfIA96jyMAte5bxQEHXY0pggm1b+G1uZGor387OEYk2DWeaVAldP5U/tBMbOLkzlrej9srjseU/tf2bpuhQz3qM31SiL8XcdfJHZCYTQ0v4GgVzfm8NG6x2fkhnuUm0k4RdwipPGeNOnw9sQpK73XWH5OTN9YfNQ1JGRNBnnYyz6SWkNM3XJzInyl8Iv7psvWtFOlyJHl5phFkYuExu1W6BD30WZoHUpeleL9668GjIzMEPehoYYVPtJLu+oCZfOjQ8aBBwiA+wNhhyABjp2BKXOGZMfQ67SqXJaBfPqLmFJT1JCbVhuAWcbxMdS8GbYAPVC01QBPsuxe3k/wp3qPWTXg1IVDKRbQqD2F5MxAslrKX/O49rzsQ2VKR1VS7346kLH0PoDYYwPw433cexMFGxSwVnPoz8PX5ZfMdKW5CJlhd4HTpc8ycVGSOu4tkRPyV3AmllfM5TazDzRbSUxo7lKq7Fxwfmq7OA+/XIh2gJsDOsG+8BkexnipQddVYhu+v3uJ6A4CB/Rcuy+YAhzjS4wPdE47fgaCQWOs8owxYcR7NHWke9d+otiJ4g62ld2iCJae0UmBUoXrPt6wCcts7zXklcaW5EUhHHuVc0ScyPt4FWi/EIPRWq5dRx13rvaSq7uYzEo9nCnxpdzg2ONs/iL5jaNZgIpWx+Qo65R6wrL7yD3DsT/liGHSAvh7LJCXe+liU/VG/wNgBVNsCNAJIQnlb6ivs3ymqjcm8+9m23fhmIKr6Bd/sZK7RJaWdbEekjTEJv0aKXYslfnH3u8HMSGuIzjVf5O/QizxObFM6Wzm7LATUzSiqEfjIYD/7YJzW1BZbRUiSPW9NpMLDA7UTCgi3ZlA6eqxrWufaiJSnlan4hn0hWTtVEVd73EfWgXhg2T2yXmARoverDheftPfn8Q4MaN95BWn2wf/bgWRbkRlhP4/7iA4rcmgIaJYK6DBsg+2ihC4e5mDGgjSNupCUcXjMLWyYfXGEDktkY8yaTlu26ZkUsf5YynGIJFh8xYn7ooNrTj8aV5BDgUZAXrdg6z+A3E4o+t8Sy7UKhjgSaQznUpIa7A4qkbsjIZUXVvia7sApZ0RWIcgAMaGdIwhJySudFUAGJAeYdI+lNBs4iD/16Fx6YFAjndM7lcmt11nOePGZIIgQhU269+ImqtUNlzdavEpVtXWU/qqnDLOaod4UnJVpO9SskmV/u9/aScgqXbOg/7eXxAuTj7NEGXt6IJkoaAOSzGAS1n8Yp5F0qIiTga36+UfMfdmR0COOM0iELAfF5odTeFyJOHD75TG3dWv1dPjnzxB5uyM26khWdNwNFObdIU023mTPOWGLPk5HPsnU4seAsIqtuJzLMovf7UCShrDiYLA9o92ZStfJMon+FvnElM0xSVkP2qGMIZIMBRszbu3QB61m34PJlDzWP9kxEIwX9T0T8BeYvtSgSU9aSfHZsO6b7UAHHi4Yh+3XZJCLAaHPsDxBz6fx1CG54IgjjbEfdHNju+pxH7/MGn/jI9Hol4lcI19UGPAjUEmLxMn5LRCBF+jQ8aBB0SA+wNhvCipwNoesFkvJOghMyua7ul3Up5dNDiqw9BSKj902C7vXq0IPCI3MNAwny0D+OtOKvm090yBykHh6oLZmF2lf3Beo09tecoGIMzPtbCcHJIpcPBnwvsGgERwR1JRmTbbcJc6s2/o7LLcb2p6VqTsY+E8ghnfHM7jTIU5LJ2eqamXvb4gP7DzR2S6VRuqP7ibOT2fJACOS5bOuTcES34sX7N55umnMGpPOHyPpof7h3P+N6mJxA9ZbyK2xwBOJCfYWVl3ohl3ImrAC2nPZY82doZcHFhaFA9q5ONW8DfvASOnljMrI1yWnxKfXc1j3/VK9z3wXYexJtkrzLSBt3jMRGU8d1P1mvn7KSjHQD5zPImQH8qreIbro0/P0SkaoOtM8wYFLaXxnWipt1XzOKw6rdT6wMSjcaUwuLYChr0l8WG2HwBStntNmYAn3pDC+rE4udA3ryckei+9nWbp8MbqDnY3X+/5VT0AhtmcH0RSsFLph7JBqWnbwyzQ7XBRVBR6YUuEYx6x+eFK6/TdYprvepCCMEAw7WwhIsI6/nlKK0tFHvZ3pJSTmhbRKLRMNIJtq4qtE0110/ryx9QZgt7BTdspF4COO2IvkVZze/FXTeyzWgxKYeWkPrGWpVL3YWjCj4+rEALzegPByjxfIqSGRVbj8L8i9zmpLZDjd9h3pCLu+ci9mvRA6jKeLyYItcMs85tFTMLMjuTjYxmvC3WoiBhxxLfWre4c5eoJayY/M2FO5ge+BJHx2Ah5TvvV4ZKZdMxLSKYT06CBhYHBpKgygU62KTN82x/d7n6M+DNGvOmCHO7BJh8k8z9CIXTXw+38tQPGN+pXNSz7a19+eXWGYYrHGeREUrIghd3HIjW8h7DvRyWusJDgwsxEP5njRoLpPMpEn17he322WCtzaKIpuU8PfAHUnrwCVBxwSy5ZPzZuV9ZnuXiFKsQnjljU8k4k0JkQug+eCMzqvHDVhprys3rKYx60AQDnGLDTQ5Nhn1A8HvRwOyKIH7ng6QXQVXgCfIrGoBGeIB8q64yOvW9TcHuZmDvN4q1hDw3zWJdYQODzMLEq+P1tbfAQTNAE87BQBpfBHZpBpULqr/RQPoKaiSWGaAfm+MNK7M71Rxp3Yg5YgbRt3k+Vm4daT3FD1Ht+14Ug+g3cULL9gRE3bXYUK7FmByNYGUga4pMrREqHOzxqqJHT7Nec9o0pnqvWGLmLn54xLSkOei103a5AD01l+kVlAT2HeSZT8peizvkPCf91QmJyWQohH0mkN+q1vTOjQ8aBB4CA+wNhisfHdL66RWxoirSHNJ5Sw4PcMRdkupbKrSduMm1Etvm1fnGkkOtn1BcMRA1JfIXfmquB631tAArZHG3+OoAstKELmTFU14CwRjmV1BvI3rYZG12eOkc3zdHYSwAehS4Q0LAq1vzcrvjqd1XovKk//ScgtNVlJ+ujDvFkKIb5bbkg/d2L4kwpCv0xrYCNvhyEflbK3rxpCDesS4t2Ny1J6HVfZ0U6P+OmBJKLmrcam5u/UAOhhAe+MLVHHHztCTHwxDOAP+pFZMf3wZEIWuLtsALD1NYcnBzmS4M+6DVKUgpsK0GvrlZuVTa6Joz3ibX/SSlg5UgMZqmJyTjGNHoPxbMNRYhcimu8Luj5Pnp1IJ/2kcU7hg7tiEjnJH063QMdvWTR4tQn9G/D53bJouLknrupZELkn6T67sesGBKobGG4t1ljaQj5FhdlMGsV3/HxmsQb5vg3xIqFcYAPk8L8Mjju3gCMUHhJREAYZdto6xwGnYdy+IitUuNolFd12H3UaY44XcbR81Hp8vhwGGB6Tf5bgXbX8ZKprOt6JQXzi6xKIucyr7ckGUb2dQ+N2rRYpDae2/gi0NAsFdx8pbenEV9ZZUxUZxoMyrzo2MxWWvPU2+R/wJuhP1PZ85QMB0XwqZNx0J9Xig0PlHlYL62MzYgoIyfRr0IkJrPp/NNm+0TF19S+21X5lgMxcZbr3q8bZMJsoLI18BPYA2DKb7u9Jl5A4liga5EjrLz83tqMj7RzbD1mFUPWfZxcvTPH18N0rdZA5MZ5S8cxz/n2HBij45GJRzg++gRlNOJUNu32c+8xt7lZuWk6FqdgyL6OIN4W+kOGzdMnxiyKqE2o6BTtYbgn8A+ii5nO4aR9vm+BOApC7YVr81MGEyj4G7NEQAEnLJ6DVR89A7oFb+wFFjgfA9oXobReP4/fnir3/0R4cY34fU1zPUhz+C+j0L0cjlBQPDwb/jwLK2n4ocj7aFKMOXMotCUGwXMLzqj1j+Dc0laaggxe+Tf5Kggck896b1LejhoMIRpOdzhHVj8kit91+22S08Ijgv6P+qkpONxHRLLFvGPEk8Zb+fx2jX7zKFh5jGxtojJyWioRUReaG4N/aNjmz+IXpH+0vY+r2QPnKBJvCLi0IKCLeirJrq9/sPUWb/mwU5p8bNspDk+aFBF0PezOtNHgJiIyA4uFRptqJzr/dgmHaUoLUYMEtq1aFbFV47XB5KcFElID8GGLLb6KTbW9XrO6GtEtRifoXulmn/vwM/Lz+hulEv00jsH6vgGjQ8aBB7yA+wNhh7Pd+9FtVF88noCyI2+9TxBlgSALUH2cvHfUqXs3hnw3GLCakaRAOuyvy3bSOr9CW8kmG4IfrCSKRWpGcktkRTuIt5rIG0dMKzbtHekvvbjjr3oOet927C4l8rq2GHAekojxNYu/gPaImg4jhM9AQb1Vskdqy8A+7OQnljamBAGmH+TjxTpyDvEAc8olvrsX7HSMmFb5ZgtPk4pHDjCzGJmf42lANHl9dFKbNLeu58uH6eFX62aVpRP6jHc794Vfp1IH8C+StIr2nc27R3VT85cPLYQf/JIRNouROYoLqfiy4oIFZWhHolo5DEWOU9aNf09qtJZK4XCkub6MLXbVknLDw5MbZFHZMHdJAb/O/nkzGREWHezV/nW9Zi8wm7c/BQqDy/YZDa+/4NXdapuGQDpGoH90diHpfIagSN4RSGGKzUhQPl1PTSQd/Zoyr6e9193L+vAzPkwdGmyhI2RjzoSyxsoKQUxNdNSYVsbpzUJxsXutPoid0iv0W8gPDQor3ZBlByJiJFn0N7QrxQMUkK2PkZ9hT9CyBuIggotjn/U3QaAAfbhvoIejdwmssaKQ/ntKfG8mh1oSlJ4CioBKnuy8HtpIq2ebvDdOMLez11GUXpD/FAF3j4vVA/8zC+isdSw7Rcxq3Zq22j+bnvYK1+BKZKJcm8WyywUUwdJoPWBWtOCiywB56vlOxJFSDswyKhHzgaDg1o9rN0uoK9nVwpOhhUEPK4EiKEv1r5eOT+4QzZcRLM7rCnPoPCMLoWoyAIDyKoLMTJsRlwqNUtfAk11IlF58XMI76PteN81IrUl5pXBBRXKXJJg8LuN9O6uzo5H4H5tUJ0GsiXIXp7RLYbUlYSZINRg/Nl/M8gbwv4ai6iirvRyTmfWDdj6l4ZNhR1qRaWf94FWWiB0H3GGQgg+al6teKYBAsIMD9+G5oTiBdaIKtPYVOVIZMj1Fc1xczdVuxHCIB6MiGFMlCM7ZAW6E8vo2JTDSdCald/yBhjRaOs1kuRR98o5LDqQjP25PYor5ude/16rfsbS+uh0T1Z2v5pcq2t7gt3uRrLhjzvRzFjYc3Df/rSTT7Iv7+stA+cgkO32gPYtP2R1Qt4XbszLeJDODDQb6HoSR6Rp/DNuuvBw/zAQB/i1XAGhnJCuSLqbfG2l+E8TZ+DRBFTPrNTuf8fGEdUhxAe/0OdEawCta9ZHTBpuGKArnxTqBY+BX3+XJD2TpK9jVTS3SOp0czZ14aO6fH08hcvYWF4mpLwWOI5HZmd8qWVVI9XpSK5qjQ8aBB/eA+wNhip8udAChWW56zE/Djej8ui7Usith7mnYRxj4iHCsc7IL/o8zO1GdUQHITNiG5F+xtNmnWGL36icyQ1NILVqPuvWK9BoVhQI+bwgCcpb7MTCmCstjBgOg/i+/nRQxGdDGhuSM3Ayv/dgFTEhdjzXfaPJ3qBY/vWm9koylVNUeuxBb5EtQa1flWVgdew+YkUQC2jQs20PBM8mebg01ZoojvplratJ6KIYpgViZPLq5IsDaGA3S3TGxa2gL/YWOxV7nJ6JsvzLrn41m8UexXX5/Orlg6Opll4lh/ULFFouNFQDRHG9Q3FGnwYg2yuYyE6T/snDDKJhMnCyGYBtMJcG74WNov+zpHTbwgYX8pSTztVYfI8mRVThcuUHtCpdlPMc93CQP5HbjMQWmz0Pr7jBQFtKnhQvW+qcbu2dAHTA0GG/Emk1oS6xoiKvUGCglzyxm68JGyqsrxLuvR1dGGnqSabSJSRdF2FGnq00Nf7sdj7CT5PPaGRy3PJ1ShyolEzmgAE2wtIKosAZG27Mki8HVF07UY2n/WQhS51mIJpb/N4U7baLDzV/+2tbwn5yPSAZAKCMjSOZNWarz8mEBlYpXCUIvCiA7tWfFY3wJ4aHwAMLnAXq0iolIFt3/zEHlpq4OBx3Tmne0wGvcQF0mCnFlQq1PgXkmKwSlQEqReSWjNPBr7XNkLAmq5qFpGwp+ZdWKQZ4CXc3R99ws6AJ1IYihIh84d0/vjaRf8TSQf/Qx67i/bnMFCbAdMRYJzg4LQYb74ihMj3Shw1novWQzvSaMUAuXMq//cg74UODRRV4oLMTFLixqYktuqlzCnG7xwuTjkmaOHpDjVwCNdknv364aYYelRAL/oBBcq7fZ0gcHrTqZzA1tRXkz8HE0a3zhUSxSoSGR4M4wklvKvgO87WGjG/zQpjCZCKgvRdros+P31HAGGKt8SFfJqSZ25xFTMOjgoqhZUidz5PXLNbJQZ8BatZa9yTeLx6tHmaDeeOOt6J2M/h8ujmUkg1Cz+N8CpRhZB01Q1hLkRdLflhub4PUM5PoyUYZ5qQ8090sS2efK+g87zS2Z/Z10wREgZQS1lV8/iMHr38dZm1anXveKR5BIDq2OxfOnJm9twHrSD7V2y7aJJ2lDhWGdeY6OduXF2g2z5okDwWYBJ2XrBQByYulT9XVAeZlRaHowpsbFzdAjfhG6bnsYaKVYhlYhueo6cUHmBQdZmgwE/C+g4LAz17FmYyUfOiewnUvfGm4VAt4JIbvzm1ggXvojboZewcmjReSjQ8aBCDOA+wNhuB2TSBft4va4u/wYFkKc5BixYwusT/6BIIVDk8QH7dMPaEexYTlGY9TRpyMLgvGyXEWsvSBinrnFzog6JmFJ2bA4YwIGfc+682GoyFWU5gLXPFBwHuwIr58ZywdTwz4gy9vDxIVkISpx8aAt/1BdvqXbhs/oncee8hbL4tPubfemfIORlFHbJP1V6XddmB0DhQw2JXSy0+rW3uEfQ7bLJ8vmav8/4rA1J+lyF+QPqHbiA/BmBZQHzifEtvDUmROnpVoVhZJu/mFayuVLkBPQIKwAZx8nfeqJH4NrsVo2MMuI1h9hSEaLaRZuQNQNdWhBA8gyDC20U0lCxivaLcwH+Whz9klt4m8jQFG0PNEBtDXGxyH3ULXezSiHIuDkhqzhhTKFcSBZPdJg4O/e2rTRGShRadNcbaTvzpK6w3geR2G2HWDGNa7Q5TG9t83KLfBjJJUS2LDXSaC15qTkoTi/WoIDdUNn3EIHbQYbPqsJvGrzuTzOM48zjk1ilwdXW/Mn2jtNPcNQhT5JEWxhman5oGGtPdmqCopv+RVt/vslqDB3XtKCKhX+euk+9mMwdvzL6k45XaLD3H+P392mkZkCFsSouIV37l7TYyIDtaXuAV3GKZWHolUsNep19uDubOr6Q8+qm/BwzjmDWjwLTkUOJgIIC1SH2cO5sQNRw/TdtRLLRoUezC7mfYwYH6cgGJcu1FwFszDmiLs9WZgNDiMnozc1gjLbLYLTC+Rd+HbWiz/hDwyJbzeUaWibeOjgBv5zCkgrlkNszi/7vUsDMsbciY6jWx1JqspsQhW+jXp6cHPQiN8yTefWbik2TbrW712bQMuJJ5HXpDDqibNYxz/bYbZJ6hrZfuO4usJKVtkvuDP/e+eHiK4YCqPi7cYAyoCHVCse9D2+vI+k77hkCN9Pg5k3E22xqAyZ3S5pW3hCh7/dffzBmjHY/raXJ1gtnkKeRsZEANWUihN4oiksvaiSe7znEkwz5Z7xaiSR+P8fDryKjKmzpNBXyZ8cXMQo8Sf/H79B38qAoywckZck33YAoJQfYUN0H2XtgvQdK3my4VebAl/f/qssCTDJcNS5bpvHDwNMqNb7+juUmhmTA69HfFAeHwWdjA7aWwGf+tT42OAi6MDQpayx1Y5LhmQdFZmC0ILGkoSK1/90cX1G7Zi0aoSl+CK4gcoEAYRvdYOpwIIKKUi9QmZLpbQrW5UdWwja9nw/NRmir7Cp30NHl6tg8EaOKVntKVYxKxgPMiiDFKZtIBvaTA2lH8CrtkfXoaSjQ8aBCHCA+wNhvHsfspZKNj3udzijrETHds7zhYyNkmON+H2jASaWyFXT5aCPET0LX3pVVdRaMFfeOQ6cBG2Q66sIsQf/3akGtwd970uS6hMMit+N3ePDPcnl3VdCewUq8ndGMlMrZr0A3kimf+6eLlVb8/Q9QLDzkRY7YO+Tl8rx+4DaiuFMv4E3ZzsAn6T8LZjJ1fjhNhFa2vgHYPNNNqNJCdL/9xAgnvN8dNF4cyZOEF4zOkECbAENPYoThrfLIxSO6z1qcEMhfjRdj8EXZcO1wuF6sEEnhs6VNsvqFOTNYB1avzNUMOeMO4fFEamcPWDEINU2Cam3DE/AIRRKjvK4vCHzuCpFvf1zHDRRf65FvXznaIsNZObSEy7Kmi/BZbaBbu1HRwIhWHgCPQU4J58dys4ThP/cq6/QF7zRJEofuIf7WnnEgmG2EkcMnZK4XE+MXza0IfVpynPUpYNy1XG77BqjxsEQRh1WMbGxOanzQKruW45Wyl/hZ9XKdEXVAwk/NMpyTY5MrYg1HvObdi9nhYMIG2Q+UIsZFytA6Z7YVuYqM+c+7MXzRwAKJOg+k/2cRJjAINNWq5G0KMD/G1pUUaIwRn4qgd5WvNpJrPLTZY6i53Did+IhI97HZSCvPNtIvNX3X6rAHg+X4xGFajIOQ5yq20VJxmJ4RyCAZ+fdk+2jGnwKoWBcHx7QxD7pXr72Qn7YJi595GRM1MM3b52LEYBGkuufHWDFd9oAWMCmcVfda9RLPdO1Fv89svJYdoHCh76semqhnGY9TXcYYtJcOBI7fUtYYx/1tImP9g5gJMa861srBGwYFKgdBtr93BBbCy0bn+SLGGiuJoQMNg6npzWiRurPYZQSsX15leOndVK61zZvV14T44/swnGVX/0Se4EfmpAqrkAwSLjC5exaVxiOPuNzsQs0NiEqTUkKwhKZffWerl3gOt45Py+p6D6d+vVACMiGh0Ql54qZaLnAVWm+2ChGzUtvsk/9qnhhvLXkkrS6jHw6nP8P/XtTTh9Gjm2vzqSxx7UY+IIuqg/+BaUz8zh45I0UfHsCAMg3qiHAQk9JKUCQmVG0OFwwgUYYnA9OLpdE5HvmW/WmlK1ofG8pOUaJTQdOcd/+yzvl/nDgf1ApK+hLM9cqMW5tEIYAaH7f0cdstDMFHHlQSxTfHa9/FU/Zig9dWoyv6I0VLghowWVN6fTWh3Pkcgrf7DDioEdIaD8OGidLwRFypg3zUWnJfU0pKhJagBtQdXJgM7b+P3JOIt9Z2XRUg4a0HauUD0nTCjijQ8aBCKyA+wNhh2tjhsj5eFdYT3clbJatNiZn0FrlLDuyJ8E6PhSOn4Yoqhr49UX20wBhv4p6yqfVD1X4/4QKFouRw01K4zEvcMY2FhDIvsiYHRuHDpLp51Zg6Kpm5I5qG7GU/Mg7AFsv9AnZmKkRjLLD8bODGrljNGwcBwMJAj4tiwT5aGE9dz30tpBR1xh5ywPsEpt1vUzzDhv58JgzVTvUozgr0f4J6nXpdMewY8JrVwVsUmSY4H3AMHsEsea3rC2Sa1+Nmt9sBDhDq96WgiwZMASE0NCLleqN3qYjCXOVVWzeqpbKz8S5umQzGS30bp9LOsMRHIpGNsqXBCrnTtDe8glza1KYs+DEVkn5HPah/qgNLTESYA5lGjosw/hcnyAYyJnNRCSq8w1rHVbJu1VcVsYPprhR/3wKGyi14yYPy4Yv2NyfxWGHcWjq6sOhIgjsoD+yUVS+oHO292U8vv3Mr7jMkgAK2dDsFLxLv3PA/yVMEyBSxITSpHOdjt/wJM/QthaUhdzN0HUdarhLSLQvxiGJgDbyuzzJqzuwkqNNLTJiieZSu5bGvDqHwxCNjLVX2XyK1GECKOfsickWyrp8hhNOEIKVNQ0EaapuWRyzKM4cLIwGAOUjcd+U+iq6MObGePFasr1p/ii/nbNuugpBR/YGzIPBtjjzBhJ3JwzoKUquofJ2EJZkQT8fJnA8EklXNtNVEJP7Y4LaxgLeBIWzxzx5yOw4FYCw36SE/gxBEPSGubp4oDK0rsthLSEzM9WTNk1tfVkUl6PJv8NJ4ssW0tttjs1tXbt68Y0rHJTT2XQf1J2x5aoX46GOUEufb41t65JO6RFp/7txaMdHkkmd8I7TxUVVYYqN33Ho4HIbt/PaDRphPDV2e5o1Yrr6IVfRN4G8BQKO54BN7PAJQx5bDFXcfdQIDjAkvn2UcMgW9BfE5dXk1C0BgEZchHxVsSQYO4uHFPRrqaegVhnnwVpfXIE3Y/WLqCBgI2v8AhRKwylyBqQ5m1JtAr9hOIDRGaeAqL3h+7Ie/9eUIgFxeiZZJY9G1gWdT8Om8ZGl1XjkTqW1Ec6qMFbTaWGquw8tfZYeeCxuCR0WW57ryZZSdoRbqA7aVCDlsiBOJWH3v7yOmY78D5irnxHbfsB5p9VnuCYvrlIYK9RTknDTVG6i4LQI4jYGhGI57W3iUC/ecpa1F77yNW2mDE33sNZh8GhRv84pfN/MviaHJ5Lj9myQf4g2qVlF6Gl1Lg7aZj+l44RqV+L0s1AkdtzA4gySavw07+E9gcCrcMqjRQqBCOeA+4P/R/0qfykYdAvwbG0iHe/pwmWKqd+0blHFRouQw+NVWNHLV0tm+2gqKCCtBqvaQRni1OKfB7VThR1tw3I/chg4e0zynyGCKMv3SC9mdOZKpo/xB+nEVPJsGx3184PdzVmhTPh4qz1VP7PY25+HioRCTyLbwtxrbxHjuNCtfUOkeP2Wm95XbozOTNbMrE3gW+wMbc007WVFtz8SuA66KTvN9StLrAvvexMO3eJHwjQ6TxGDhsEvWPzn+hva6P/R+rM7uYtr3extgQ7EAnlPdf2/HQEk9E9zmqFj0dMUHOK5WdKIk1OrYuv4ELFNKXpwaa5uiQ158GsQuhYU2fv5NH/9tStOo1MjGXkT1b4txSNduU1FKRTH05L4Dg7ldHFYTVgINsOUyim99S/nzmBnUad8R4fbw47ftV9UCSxhiplH5/qAYo9tm/iDUSp9ME/FmaPdo/iVn09O+Co3N/rCS9zIMqOUguoopWT/yOM8YpiwmgNAKZgXlUjr5yj9AdvAg352AIGse9iwTRGVIpskuKGcb15mBBL0aNqyjmRoGZG1L/YDiORIcDLGbevNU5QYaF+SVX+6mxQuX7M8OVXERbZ6GwVJ1kDW1xNqxaAVbsbEIHP1/MGTpnW2DlHgsHlV/EgvPRst4Ux8WuN5N3EFB08k45HiqqPoF/pMUqXsfSK0tZzIBu2YwFEBKC/5R3ousBgScHl3WyEOFjpJPROytOx+cwJ08grdflcHIXjP+tM+Ww0fhIHEohex3EfmKBAeCcgcnYvKcscl7NirU8nOPBCibHfZ1XdBrjvttej2RTLMzUC6JLQgem8V2g79GzYOW3NvL4axC5/m2046oE99ngozM83m1z4xiDU5R+I47rrJTi5/DbwK9M/LglAlI8lnGNXpQFaFEmUdjNdamJMcze2OBcWvzWHbIyWLfuLAHkM4mtwz+I/kbvZLIIDQit336NBhXMslXIAZjKbeZ/01XpWGU+d6Uz0kpSNqeEpGISm4SpxC5449pYd1DX3x3HBs7TrIJMoMwqQaPDS4TlpbuswSxSgGeH7qcDSqJmpxRjsU7iz/bldVumIpSOclF1YaS+9EGySj0E54KE1XGrGcDuugy85V36Xxam1LHydLbrORSazc/A4L+xB+PMiL/miSCleWId4a7Lz9ixOsc83JzstgXuzzE+wqyMfTN3E2C4m3GW2+u89FAnFG+mI56PsrRsbIVdVdrajsuvC4KuLI06KHe4Z0G079lqACgutsNfoy/RMr/BB7oeh1E9HhKkyZp1/5xNG4cpePZBRo7NO1VgI6a+pBWH/dyCrzLZkHCGvJou7JtPNwjagYxwfWYtW8H8HDH3W0fI1Ceo42gQOX2Kv24DZM6X4yCG1AtLq2ML6sCTtrMRZF9+JgM9U1m5e7y/5MwVb45WAtv0AnBgbbaHnUZ8kYpp0k2g8wXRa7o0eiyBwysXFAEbKA/bSZnUTUFKpjawk9g97RTllL7N/4mKRdeBm8kjP19KGjglx7hieJmV4pa207+8JA/bHWxPoQdr8rjD7aXn9VuStGf2NUmwg5cmn35rf7hV24BZKr9KSss3Ia3hgQGH+anjXksHoKlUX14LpdqU4XYiUgu6GsaTH1yKM+lEd46nX9aqE7jY+UcRFwmLusgwjjHPyMAK8AcM4wG140OApCXSDdyLV+tBf+HTobnIgXNv5YpZwTAUAM6LZvYgmjQ4KBCSSA+4P+DP0Kb4bGSELSIGdP9FR4Nn2CHQyAn57sts77oLUvAr0kwKiey1SOLHJtI0cfPX99nnk/DRD2pOJT1BHgXAkujARvzALOM0BBOHg5DrE9pouVWTCTv6KzvEwqwYXlnSZ8L4VM3PWN/qGX/rYal694TU7WDMadOvLx3cThF8hHPIed7mDMXusdDzaF9iCxsMtjYcF5g9a1KABvqMIV3l1LVh3PtON//6KZNenUQcCOgfZcy+DnJVZ2C//47d9y2h6ZrsDJvArmeaJ0vCbHad7G3cqQOTKYZSjVu1PpssnISyPd7FuaCTLEngnl/luBeD1OwGkz1/1CCXomiuMS4QXNn7DdQDwhriAf0PBDJ3sVEOfy6jW/WsLdaEA+upGPb48eEwFDf3Kwnjl+66DBLtUwRYxhG52fx08DYAjHdPYiXumd0SY90m8i6ImMxqggvuzKN5yolaTedf/aDt1wIYhlX3uToukr+4VPUZOOY7l1MF3GMBDNaPAt5eqPZBawxNLDkbvH9ycUtmwFSn+achQg8O0oIFIMiXNAACMRVPAE29VvdmPSG94LjmEoTLR8MKGZIGIYqJcPL5odIeH7WPYrOLZxwwdRbv7QSMhyMLk37/6WtUBS7nqvKEMtcDehfpo1vkkLXXZ6l86MYGaITH3/d3ocjiRZMUf67Ieq3VANkdyrpQTTYLS3+GlMm1c4LJekANjVqLkNM5B/lMwlYdrQZ8G+FS5/08kaBwf5lC8wYU2rBkTmCy2H60HLi4nT0p1w/n1FU0A2r133+4j+nJJcPChkHGYmwGGHow4lErqSWGxB/ftcYRLu7lRqOzOOfxcuVaX/cuPb+U85PUGXx9O6413OO4m+VR0tbltzuRCNssvVsS0NxJ6arFRcKrAfav1jMAcEkPwbey+cbmJ2FxxoCEN9zo/06Gpa22EJIKUKQMR0x0eEKvZ77KVTd8/yjXHXOQnv7ASBiNfc41kxPGYXNVvhehdQVnaXWWl+0RFet+Y+2WHXvtNP+eAiuMEA/kU+8m1PPIswtCTm4R3B8BeV88b6LR5ZJQLaOZ9jkBT49OgFAdfKPJM0kS9R4qyzcPOhjyEsslItjDb1/aFRExlco4UBQVV+c3116Us6sRi6TycbN2eHrYA6kG5mdysR+dRIBXen947rT8KZvwsNZVMugGZ/G7uWsQjef0SPo0N1gQlfgPuD/An+C2EXqWGPmdHjIue+flvhe0QI9GtPcoxVz2NaTwWBZLi1jcQereVZUYTYqH9fDHpgAE5noJ0nvRobEEu8s5QWCsXDFnf0Dujthca8nrElHXA6oHxf263nCxWYccMJTiubh5ABygCo4dvXMZTQKGhgOnhYXcwJSdSMdyQDFRonm/5jM0AKJYemkTEUCBlXfi2zc5z87nk0fBv2IswlwSkKRgGoGvNAuR3ReBDqLK0RPIADQ9O/RsxoElRTN2xTFNLmKSlx2LTCRbAz6AU2YjsAA+cExkgW/wRnu6BKSUPCmd2iXMEBVbPTgmMsL0pWlLLiqahhqDNgptBp5ZsVkr73Ch7U/ciRDqoEakADZ2ZeXkQslKhDKX1lYoebINh7+nFuhGBpiwRV6a4wDK00UVohOHN7UanKl3ir06zgnu8VC5FApKUaBB/j3Z5/wLyyP889ARIOqYGxFUxxo0YYFk3Oe+eflqnBKq56oZuKdCRsgB65Od/0/vCGjO/+udsVaFFp8C26vimQ9vLWDDldPiMKTBjJkwdfMy//XDucrcv9byh1LToor369Nqg5PcO+nbcS5Vib1ki+CGamGju+b2Mw4uIlI1AfPEgsEAYDJNVRSt2z23TJ/FCNhdTQm8O96Eb6vGkLVgLzA7A1xAoI+7mooh91ZpljlbSHtP6XolEQFl9fbEwclhgZ6sqyVWmwS9eElbmY2+WLorVEUf6gZ5vmQEpyzJzPuBfYJNfMSSyiJvX/dClw2X+GfBrzPvxBl/Mp5S8SopH7wIM2TBRhGPqtn9FlSpzz0vFBh6twGa3ifL9WaRkUGMhvjLdR+W2dQ5dtRxpbuUgxjpqzWjqyMXyq5VZw2MRlqBL+LXeRoZseAMYAfGJfMcuhJQBdH9iliXqvxiyFxMTb5PRVmm5vr+5dQYvoaW4ewhuOsh1l0bCJYEGW+7m2GNhlMRs4lNE06oj/u3QlZQhd1qtfVCAdwiVIFocfPJEkdmriKija2WOApLxjwhuSP8T3rXo/R8KKkng48tQoPJUKKQxv2JjTA+kgUId9GQq9xdEGMRB+rE4Zlh8/NsCdUDX4X1vwONfEKPVarf6gsJHelwV/NuZnEi9fuAEJ+79ocWl6c+8KxcpZaCBKi/9c46+QbNKuasEnaNcscM+B05aSJO1XIAfEo0N0gQmcgPuD/Ar8CmGHaq7HGcTBj/9M+D5mu7P8gfLoJwVXqAZJptLSfaLOMJL3jyjKxljWbMQ8eYJZKK75rU6OgVPTkKDOisTtTkFH9kmrWbZQSSUAn9f/dex5K0MK7SNgDt/+X76KG58Ol4+kwLk0uKOaEt2FoXU2ZitXdoP9eabC/dZKoWTwNE2bjdm3PRXyZWM/9SdIZ05USy1zzbdni3SodGAiFscY0LiYRZNOlJHXFghxd5VrdYASB8L2HJuICosp4sQOM6LwLAVZfmyoPxIRbfQanA7NoGnwx9N36pLhliEBrYdEDB7NRu6HrdbS6xhieib1QTQKSSoceeuiKJGV3m3ZhEAmv8v3eYAAfuY0I7I0UUbTmf0PzciW1ddzIHHXisYloL1ma19XMalhir35PIDbr2Hk/rSJjgl4mvZVmyRSB4NK59wJFIPxo4u1W8HMSaUaqaQweIY7on9BJvJdAukZzthaITZre7OSh1+IAGJP71/et6NSq+Co926Ji0U67/rcruZ5WmwcnP6CCf+q6AZxTqVS8gha3MqWrlADVdQiRKPRx62LMQc6h1XcSjv/XtUbx682fBimK658eSjmXEft8VohwU+3ScKh7uO/+zmjpvAWoEbY1RVzM2QuqgFdtRqIIV870BIwBovW6AoAYy46pFrgO1JPdhZfDPtLQBTQfdvZrXhqFspl/cz9q8a/79Q8fxkau6MYGQGTWayam/lxgSqHIcr0i9YMZNwXF4rW1P2ggECp/29jZXtLIENTdzu5JdS+SiHF+rCRxuINYRjJZNpsjWi+cs4apEY5eECP1ijL9H3WXxvuXSVXwfMUT8P7vKyQsCAv51ef6suQMGFiTO6AcVy4q5kfUxf70b40XFvUXVdt+lbIMshcgO9/1ohqKXwtubTAFmWBa0UIi8D+1PgDNcRCjjfcLX8RVARa4rOYQfdXT2KzENwcBIIp6tEKX+L+/OYk9dfx6zVE8CwSnAZruPc+EOOS+1oF10pxkZ2zdE36xFIoVT26lYy3/Fi4ONtoDCRHffYzwsVLQi99zlWP2BLjWoqPiPZx/8A+QhQu4TAw6iebz8Kowmt/IgnE/8ytAYKMLehKEdJI41SLbvus2P2PE8vJGFKJw2hCRyFDa+Xy4BgdzRMHUO4AbJrA7f8QvbLMy/bUU9SmPMGjQ32BCdiA+4P8Cf4JYTQ21xXAljPn4/89Z8I5ohMONJDCOTk7BQix+IbZ8d6uoXeiFmNTz4W07aD88VWlxzeMJpeunv40jBjJO0Xk3sLOSJ35txag5Jxt/pbj3/poCd9dL/ZbOfDQV6GjdCjBEzQzM+uoSljaYELONqEAZOfBfFz+RKASINc0DZkjRJRoTX+NXPTEciD5VJUt+YOMeqjglkO6Q5QDmV+dOgQILgDsQbyjCCQ8R0xxcT8IHlquLR5BlY02xLOQfc1fVkYYJUon55/6ZJ/oIu/+pAyufvOtIY2ypPvMHC8wFGRJYgEVBtMoD+FXwPvIK6mdF/dsLLKq0SuL7p4q3caUjXSx4rjMmRYfwql6boFR/Y/4fyIGyjWYY8MLFuoPqLhpuZVaYbwp67b3VQlTSPdlXrCXEe3vJt5Vpgmvegw9g2CBZQwiigMy7jLtafB/b5Im96SDLKQpzvKQwOueW86fqiGQXHud7YaTItX66+FqoMLu8Zq2rgfIuK4N8jVwI4LWBgj4QoGS5q7nnD1nzvnipxAgoWiLDDmP/wTwIcqIwUaue/ciXS0p1ycCe6ByapPracpDgJsauNRiOJVvrz8ZIvCSjc+3R1l4fpSqz/zwiV9TcYxK6P8ENTZu/oin67DPK5KLduSvFykjy1ZEVIL3JjdoKHPwa82LpvfduReiPPAVvIecmilV+90fET37FydGjhIbpCWwbPfK55C9PoLO82eOnHnfVH94Lem6w4ZPMgdrltjym0qqCvzuYPjZ3Jk2jNMgGSZhvCTGal7xlkjIv+m1YzGxW1vFyifW5ZtytG8vhVZycypO/Y2uERf5OJPTE5Co3UlPyGKqqiTwRTdijDRBgzmzRGJK65Xit8VaO53kryIL6e8XcGl3X5k2P/jYFS+OAA4I8Gdftgbgp8B20BSBTfDSa5vqpcVlq2+YzvYRlLR+55Za8d7PoDWhV/SAuRLlCvTY+xMkEX0HoEKuuFICR+hJG7FfP+OfHO+1wXf6gETS2wsukriKJ8WPXRyt5rVv8V6iLcfcvDehgyv6erQ28lj5INVQHmpmKzoAz/apbcHklC6YFUwegvFindRYCAQMZVE6yQVQtbngk+ubX2bL3gkLRGvjoLToiI/KsOHQ4nb4cZ0ZdyTwaqaQDBW531aLWAKSGgeWIAYPXiZ/trre9M8rHKNDxoEKFID7A2G2ViVfH0pPqY17GuVrQMaSTLAmaSBEjrPU/5Yz2vdk8E40373aBzYgPY7DRgoV7YBGsM1dh4j5MT4ZVLsXeynXiO6cqafCMqIQSnQ6Sh0T0EJV1dy+2yr8m5ksVPsJ3nhg3BxTKvCnFHr5nrdplVH5vuB74/OE5qUhjCTxfv0BPw7opcfs4KVHP3Sbzhth/HLVA5VdBzYgkgmUovnaTAS6yAUFbChNJ6CCPFMOE8ZdVYSyIMzZWGY+tiu/kdRS2w2/HjapvgULw+51+eVqnccM6mA4/NTceG2HSl7mW8xN3kUEEmBKB4ZFzkV7iAniuiyDZ408twuRlwp1qxwrffDMfljoqzgcGw3tiOjb/lSyz1UvdKUzBOazdvpwdr9ADx1FjT2csn/W5IpxqfF6udUm2NCoLFtwtmFydERFZhaXYYdfE6obq/f/kuZTh/STswgLnjC3VJPRNEeNlcYIK2J/tLCXJBSiQDXaXTg1+TmpiYSffbQkzjkxv6/Q7dAHrJO4j/q+FizPYXeCje2UvBNo15g1dz3qAD8Kekid2MLJ0OQCg357EKWuH6pfv257bGUbXGnKrFY1dco4DWRYk7I5lRN6Vo9IGUrNruvba8B4cxDhtk9+Bj5vsVGl00nGyq3RF5PTGGqGg5xhZ519QrB+k/Hb+EukZ9CCVifRHDQukrbIZ6u2S5sY1DMkkGA1XV8KlVvI2j4hDB3irZvH+d8KyNmtKwYcHyaBDfSHEVW/y3MNvljHFXnVL1Tvef/O1mOx9FOkz+c/UIe+PhL3g/UYIDZbbQo43L5q0hz4qKHqGzwKHUX42SI44wxT4/TChI9UYvefKSiUUgdwpVxbN+5hiTu+ZJX+9jhMMnGHoCMePCBPNnyoqOmhC0oeVAV54Xaey/Lp8pgRBmaPE7TMmAKpEGK5SGM9U8rc10dboD36ndLW2Bv1XZwQsmp2SifyjKeqlYxtarNPT9kVMAj8lDA28vhUGZH+mxKkQO6mikNaXRBa/zC3SfkuIJYUoZ1wKAxYzdUrKg/nw/3si9joxgrBhbtvBhBh0yMbdjwQc7kT24wG2S6ZuWvkRqYlLYbgGdNzyNFEfzq1FHIoxqiXSpAI3irnF8kP/Y8H12acRqpZplQc5PsDHOfxw7JMSNctOVKMB5HFM0iGJBjL3vHuH9U07FsLEf6JTslDkLq8zFUfX9y68EcEjcsCT+SkqnT/IQV0Ho98Gjx/8zhTQsr/IurODGHI++tzYK/fzqyx+67p2pe6Xof+XTYjEcPYAItV8qNDxoEKUID7A2HAjAHaisG4iPOjDZDYJhPTXqYh+rxdPBsIehLwsg/REWde1jwrrxah7Ao5TVjnAm7EmdaM0lmPFw5jcaEfN7pnMG2QfYErkYy3Rd3mS//laAIhPDtqZQTZ2qllX4eVTbghcuDYRzgrgH6jvEzxvkDD2KGM+LQke+BRyvNlOIcmrkgwH6HcPibUYRHNr00TrpZXq/yeH3A8e7YoJWmojy9egxdBbuctyZl4jJe2BVLiTp3/tdHrgIEJUliV3p1Hjv4Pq2PrTkYEXy4zU18V9lWxYqQCRjopsLXk/Y0n3zQ7GoSgnZVUHoKfDVCzvr9qKiHTK2jaWW8Z+w754wWLZ+A7fIcsOmMvQvzvsjkcT3N3JDbK99kRKkUB4K+RuReAyARggDuF2rHlEGNSl4I3YkIo2fPzpePQxzuYpfpiQ3w/YYdtaiacEjSJS/2msGyifm+0uzK3s8Otqy1unXt3e0tlaMWmEBurC6Rh8duMMfseObmj9INN4YAwG0GBk7P8KQuAvBJQG5lb4734C7isVbuuz432DGkOWhkfiuzGRG/aK5DqpE2jb96AleupEHb1Tg6sfX/y2j0LQYW3dv3QbRbfJEVN+3J69dmp9E8Sv0ZcD6qUHtE/TwJSih6vBvsO/G69zQXdMRPPihVzMBTxC5lsqt7IiLDK5YOsF821wtdiuV+oWwQ1vfMAhYdibaoEO8+FI6PHjsXVhXuD6kqW+0P873sgVkGd74jq6jzz5OjdZvW0DDuvfOYAHbJLlchpmlBxeln7sxPsTPD7lpNd4zLHBIH1NOO9uIUDZhxNdgYt2ek+YJIRvrv6q2PqPy7QAebbh4dsx1kTAJhFu/1VLwRhk/V8nxPNRrLpc6l2/jci5PQbxO1BRqpIsg8O/O6ltgqXrqCJSl1ANGrjADZdKQEqnOBYuT081Fdk6X8q75A+J8LtnZDXsV9VKBWZ+lS87K71MKdyBcorlqfSdLCg7x6r3OOV8J9iDDNMno6IqpNRLPt+wN0U3/oR+ZdAXnHWIVwsIVx+dty4JoM9KeJ1OXxd53yYMH8nGyRH14h4AAKcKGpeT5V78TnfFqgSx+pFGZpAARLsQYLVYECVVZ/j3o1TCpOR+ij9tTOA101Kyy5wEFQxKMAMQx7DlolvjPJ2pdxu+FqqzzumoVS4GCvODbaptCgwhXPCP7P+p5q8Vw0hCb05h+2vdxifRBmuZaGurenSZdwymXLJ5vQZr6bImPCupm2+sYTWXP+beL/hNdPR2TvPbr0mEbYmS6ovmLRjfaNDxoEKjID7A2G4KBPJv6kP1tCJMJXYEsS78R76iZ31///TYQKAeMMmCrhlIoF0PJjsBB6lCKk+LxbCt9AQ30KUgebOa+4z1fi7r8o5VDpBFO14cgVyQsjaCQY5Hna1Y/qtRIJaPMLrl98oY3roCLVQQjOdKDfCHoGwTBK29FXlc6ePlNbJFH6meeV3qLJDS/SrQUxvWgaw19juuvgaTAEYRMQN3fcO7mXubbpa400sKSIKDJCqmnpXJhurnH2fFd5NgvJcoWqlfPR+/MkSWsN5aJoma10ROtg4cZr3SiGUhMadPQiBrdV3r8njSOtWXwHvW9SO6iw/ZQqtnUbb1mrEKZD0PORWPJ/N0hfP2qgTEA6cQKl8e5OAoE51iCtOI1RBH8ZjSjoubP7RqXSYChHsChmUSGt2maNsTVXv3PbqExyuz2MfrCwzYbYsP1ESYtcyy+jXsU1iMIF0ZGw2o1/LdiiDIpXHsOrUyoszHiI7cs1X8pX6VvzuOmyfjca3tPAvZQyiYBhn7Ewy17nQfbAQ4il90FN7MIHkfLdz35RPNGSXGfZcEdoAlmbtEFw7iPGhyZnOp3TrVFoXsl6+bJm47dwSVuKb1ctntXyyon0mTlr2TCamI26pMkxpfHIyNiZciXJjs26mHbwo9X1Y/VihuqyKMnDiVx10jfhc5GuWFF2gQGSKNFbM/iF2NqmudB1TnQD9GZB3NojAKm5HtIvKQ45Dzw0sM8qUBoHllIX9fUbjch4CzazV7+8aXv6sbVfHBozJFcaLFN35OE6r84ZCOq1mvJ5EIOKTwIOmNCOBjoF1+53zXy5XB7HdlUsncry8ZIPxXqK4mpL+opYTYlo3Jw8Y+4Owg/1hioxGOsE4dgEU9ZfSLp+XUhSzDW4+ighzQOrVinT0gv7TbolJkq1lPjJ94d5H5XOvwLphcRuHCS0pScmX5wnmiBQepLAuxjEuUf8JeQZsd7/a4p+4a9h9yhDSN6qeuRSHFBFgeAL1+t9csfRHlBLoLs7fF/5RH/1e6iy57GHcimCdiqHd1qvHSwEnQZTMkFoLxUx8qh05XqnRLDMDr2cvYANozAdBT8Q1pT5wLItzJjCMlyCECFgnYYA6dsHnmCrzavVlkWIAzWWy818XSynPhK9FzfSVjPWsiCZgQRJeEIY1RLuVCmxBBDNQHQRQXqueJIsKwo82wFgf8YgijQSV04uSSv/MXBO4sNi0qxMzfK3NicMCFoUdejSiWyXJXu4dko9CEVaDxie72nr42kZZuvbXMH6575Qqm6U6cPtguaNDxoEKx4D7A2G4g64Wua3SQ9XrYbZqbOCnWqX2VzyYzbEM6sRumit+sycj3ftJjXMPJqyhQHuN7TJPdDsFibcsMhOkPPSJeBTj2IGoAylnemAOm56Hqa8qBRbWVdQMQKqAj4cvLMUcx6MtY8IMzSI/179Aj/ehIuv5op/DXPPHp+KBsXm2xwQ2TcUlhOwP+0abgbSRYR7elqY7WTYQHn9OCK9iKzfc/l4ZeGlakc/FccB+ZieHZICAVnZ9JFMdokB8lxbvLo4zRdlYGMa7xvnhpJT48vDiu9pHL3g5jD98rudmOtDaZy0QM5JcMsqmNpbybxBc5e7q4AfvSo7z03iNga3CdHuQJoWP3g6EnHW13Mt0r/MZgttHBbJ4mOv/YLlUa/FUGB5iZCqIzUvtaLDdlNPtwSavJnba+sZlBJ0nJhH36DZmv1SFYbiWK9StroKQqvnB+ENxWpN+E/p8RVtQ7YuDArerTep2FUjiWePyXKsRqhFW7li0VH5aArYQTP1mf1PMvNbiDQ8+vhizaVoFYWNXfO/msfNdgtPpulu5AjVOZMpBkFwGb2gu3VVo+fvP403SXMrS8s2vMnrcFUy9qLt9tNjds+MHOSKEMG5m0DlToi95I6AbdtJh9T/Qadg2ceUHcTzHuCOHSatcZXSk5f97PUniIB3KWMH1IGn+PPLUdJLq0psf5fzsw7ol6XwpWW/fHg5dbZ6n/kUAAyysYRefdsq30zBIXNbHk+HlRdSYW2LrnvZlbYGjh8nD7NjZ5YVPbZJfm0UWuF3XsmOnxwnLYY1XFBCq7/aWiJ57GPKRluwqitdyoNgVzQX57HSYVaqwpNIRfz5i6igA+kw0Pb+jWagCpW5hvG5eMs2ZUoQ/jH5GMsnZdrRuh+AMLFeXxCZYr8+hXMKCRwapeqIjx5TkwXU5/CWlxljzr5X2tkpkPpXIZGlW3nJduzswOk6w0aV0CJDcpG/4k1Cdvsv8C5NHqqomV3k1oHg67J59+SViglDa10adMW9yWvD20usjahPZQbGrbv+zyxf28GShwXJiAcUEQDO5xZWkzEIbH6TWTCEsrAjdHRm28bFXFwuZqNBTpQpcyQ8kfB3xZSptfi42x6XADnn2srDROjPlHod56LfPh0D3OpE6Cj8DPWgTuAHombJmGOuMotQlPJEa3t4kKhBAAmnfmmm5vLB9fz7eEHokQeWSCzIS+xiJUrQ7bbF/n5JpcSqxgpAwcRiDzJVqQno+UV7Zph0UPLU1fBmx5KlCYaNwbDVlMIKF5BHZtogb5L8pPaNDxoELA4D7A2G7zq0xaXxO+5pfJix4EF5v5WzBRFybOIYHqwu0DOXpPD9Ysb9HiwPP1ANDHqwgIYvJOg5cqHJY4UaEgHZi5SmIZEqDt4VYUVH6b8AG5MCWLlvskL5JieTEehtdWV8gfzcPu78/gnYwGxm3BtHwbFYbeUE69YipQMOnJy/sgIOjjzPjAHZG06eEb5OZz36mKkByJSxbYX/TjR3i9PCT9QvKkALVZ1oqfH1orXj+TReGk7+qzgH5D3uolzVFHABYwCHphLQdVRB2r5hn3xOn0nP6LmV919lcsLOrsboaWAYMtm7qxc7ZMPlOuC9m602+atwYuSRgs2OlkKogkYP80hc8m7G3Owtmtcj4VA6jKSKidryc9UMcKUQ9gA+l+Qa0ScMoGg2iDGxrMTjyiyIJYMBRMyMbMa54hR+5hXYNcptRYbwp9n3pqr4GxUPA++mR04uLQ0oaliv5nBA0F8tDOLUIe+gQQvFfiwWiHpQXZq+I+n86iDhO6HkIEUUKXxAFUu3SM8/F9+zt3CeUqm29kUULGZnxkPnaglU+LR2J8wlzpjP89dhn/rqNPLFu7ab9YYDlTx5Ut9mwYbfOJ+qT3iCNZ9j9tNPPA3bpgwAYrhh8+eM3OzUsdyiSijeAprbjYRsIhUIAdi9Rm8xq7LyFFHpjaYKSM7A4OJKdlzZiz1U9AKyCAU7A9uO5CW0EZapH6csTvIdxHYRKjnbbdzwY7QlSQ4808BbhuNTuAgVibSQ5Du5kVzOqb9E4Cc1aLCcTXQlL/12w7TyrdFnWGWlR8zTixCovpuyROKsmOhz3NZOYqGQAXPnn+/uL3LojzRavEwnPLAKiCCIv7IuuOFMg//xhvDnrul4q2T3KC7txZS4hoH3MK34CcgZukA8532KGTemxV2bizCqYjk5ELJIYaO/qgPeNXCQyAJiMial18ewF638VoeFOTCDXcX/F7y4If/q7z7lLj8sT50w88ERKb6wI2UPRemTXdWfCpHJQrLWkRoFvgQJOteIFOUcpqZix5qRLr61mDKV0lBTKUkgmVskNnleTans4H28Eci/TT314cPXAvTYohJK8ZJNNlSdyTJGF/RYpFIx1v6rqTGnbHmXUIVco+7filiaq4FNsXxoxlSKSy5zGvDg5DjaffkLTptk0lW6ZI1hR88QMKyc/0Xm4hxw+Uznn8MFXfUpCf8FQDFq8+6sidheE+dFMuWoT74bCd7T04f158p03ZbGzHVfV5fTL7E763tU2qMDQs9jVQ4za67knv0LrqkRi90azvaNDxoELP4D7A2G8eOfGL2afgYlOplh5gwXfYmJaJGg+UDjY8Qx2GF4zaZEYtlAnIy8CFoQr6bRTYVCfth9T42qrDY7maI4vOsSYzlwOXB24iWvPfSyH/nUpiEAd3ZX1C98wi+0gA3wmogjSRz6YofdEziHkmq/fZxsfE3XcMopx2LMI5c+vJ6MCkxEVFPrBzdQqOPbriQ+raV3W9c4neh/IAuNLm5fz5kV83a7irDP6taXtrB8kggo3NqYrnf25Hk9HwC9YcBiV6l/r3QUOuGnDQAnuzKOq6Il/YpGA0o1C0wNTGQs6BvQC2lK0uXbEHkBXSctAkVVcL0Q0UukB+wNRxkzBoG0YQYikc9eMT7HUSsAu/u3xOUudJQPXh725tvtn6S7Q8t78kbS49AYQY3dZx40r4oHGrjS1BILqwPbIlh+O4bOfUeRWYdUp6kONybsqO/GzNj3WJRF6pv04teRDdTfakdz9vqvCb6fsmz/4FriOIvDVNsQgnWcCYzBsQnb0KwQsDFfKE7HgyfK/0+e1wKebSlJj4eJjE5O+t+fGuy6X/M4+TFKSTW+dOXzc0Ob7SJefMB0iV3O9ITclv0SJKqIDRtsA4Vo8Bwv/qBsvJg27uHT8c3GrYWfx2mv8o8fqzJzonmmyUzKFdsqqbagvxYGtca3ds/yS6DLsUlUE0gpu8HdjA60lyPQIWc62u3E2QdfSZkp4/KO9TwS1kYnZWPHVPdW9GB7PVfz/5PigY2cVu54SFH1tHBTNM9w04lwnvoH0XGhTNmTI8w1UmglSNtmOf/l6kLkHz/MTZ/TQAxekfmOLxtQAg5ZL59eDOB4hmWf51Le/KyUPtYW372Zh1REu8wDEGAVh0/CrsMuNgFYGbrh5vgTlyUCkFstZ8Xrk++nAhO1NzPVTtdmnHlk/5L7Z3slmaPBbEMkCQZ3bgLYcw06/n4avRbyH0HVKWnnfQT1IxTuHpacE2eSbq4uBCO/JNnMszphFIa4D5p1guC6HVxSDKQzlms9N/Olvd37HXZCfWw2IrQecCx5I4ffEYCHT6ehgTli6Jd5Lnt/o9sg2oELhReYQMImrY61siqcaIVxwgJjvfLXZ8iAB0iBFwT7rpxcl3lSPbJOzhb2cY2n2nGoTJPGB4aKqID8o5xG5w64oHdSZUAE+IPvneG6Wqg7jBVRO6SYtWuRMWHyA3Tr9pKctcgwNg5CdggtKqB3KrvWKDoER7tdrl7lhhecdc59f5GYamnAu1FK9U9VQNQnO1UMXPzRNntv2Ph2GWEJ52qjfZ4HoHaNDxoELfID7A2GJ/wjz++aAu4W4euzzCXVdp1I86hvFaoCxBcHBdzMMgr9JycnTOnNHgF8s0kKQjYBuvVdidCgbUI4EQgUNbM+c2nZ6ddzDBzZ1cdMdMo1JHbmbwaeOTsihDC0td59y8A6JB2kku7JFR5J9UIbbDMwso3cqA8SvIz/VXHoA2GWChE3HfN3tyMmeCfowRIbGvsvktRb3fODuk7C3N4XVgmA5UiqHdxxXbC2OYEy2BEYi9FBkFwrjtgCpQBfckJ3SGRXwZBEJlg7SrBv/seXu9bNvnFmih/U3lqo6YtD2yDVc1snBY+AukLLuPwE7SYWnI1FpcJR3/2ITWOjKJjYcmrfVZMnkdg9PO5h6j4PFC9QPrVYzqoywSaJIlWRTK0koK89BhpkC3cEtv/pJ4FzCGTqQR/l8lo5btxYqzQdzPhCSYZPsPWdkAScxcaHuN0DvFY90WbKCcBI6K549CiIT0G0/uxkTA8jjEybWQn61UWqZTKjs9C+TIdIXYEuIhb9vGlcahJkkhQnL79qbqmOHotknsF5SpNMJ43aeNO9HYB4ymvCXb1W5T48MsYhlM+1lwUW8duO7+Xi1TnoEp2QAO2kSXBEChwS3t9m4aBnQ82NTqs9hatj3/4aooZSHxY7Veqyq/KUr/NwX4UdSOPAJrdcIgstKWnwR5lytSfqJkz2s3FzZjaUh7FpMZ8FurXjoyku26mWAlmt+4nhWygB/xgFRn4zxH3WpAa9wfdq+kYhFYLjg5wgNNOzMzwR1NrNViw4RcJ2lNp4wdqpfLylI4MblcVFImCspYyx+dRYuCUYgC+yOpCH0Gr0Jt3og5iBJp18E5+lW5fa3D8x1jxcU2ZNhigJZi4yDxdR9Viqe2NhRrkGniz75Enluj584cEcXg3Z8iZ5vc7lMpJdcb2TTU/CHTo/eA4Zlqyvwn9foo2UxdaV20c2vqYVPUdqc+xFZCmcjK3+VNB3yh+ubFwgpP9y066QB0L1D4w6pUhpE7q22J3MCf4Sg0I+kQh78OC0bH4Rklh7kxtKGleCek/qDMHC4cXvmFE1w0MN4oPEj8e2NuLplBCsVaR7eAifxE2UL04+zPnIgMroHDD/uxHpcyXyZR3ZAy1Jwx8eX6UPjRpwuX8wA2cMtNHCXNQ2Sen+mZWCRw1VQT8M7CgQjA3/QBoNJtGD8TO+gUHDwbTbM47VuvTdgd8gSPJSPB/zc5wGoq8o/6i2IyZPub6dA4Q/LThWc9rj3UJupTV9rpPakpb/UXM+7T2IbK6ZKnCX5qsgfbqNDxoELuID7A2G8bpzo7WJXIHcD8gGAnzielyt1JoEtT79mw7McgCWcCMpshMLHVwtR57AAGH6/hX9cKF8cAAx7Qx+1reEoTscETcsC5FF1qLucZGUWcnUBIQ0N6hwFftuAo1biIW4D1eGSli4NeVyHeaUbW6AnSAJpwTwoSKAQ652ldxTy+elaRXi0kO3bVxD4E9xxdUdpHObnPQfDP+KMnflQ/fSJ/etb+LmoBc6VtLLSeDB3wsJNNQCMLp0XAtX2waFCZUtmMbSvLNtSMFCZEoeLMRpQ7qe5EUyv8exZs1HmTePvHJsWtH20nH9M85KFvqsL2Bldgw2n8ydoi95psD5UNSTC2ZaMnXE8DXtlxO0WdlppT1vyGcdRrVrap3cMhRr8DwWtBiqCPyD7NAKly11rb8QAEXBV1EpPi643oc6T4Ti8QHQlYbgVr+BByUbu7jvYtGPR5lucUIsha7GhzAeEbIqf1LojkO34looml7Wnu5dQgOchWeyDajbpQJg3DWtOFfMuXzX6H4PKTbXoqE1oCtSrz/tM27WtA+IgVdHxAdEkt68Woog9j4DgZiH8JmfkjfHWptBwfIazg5yrDrvQEAl64yX5HmOQeWX5qIF1UOvjDWJjZ5UHjOfTauEPYnI6JGICcW3GDjq9ZJd,,,,,,,,,,,,,,,,
