success,timeout,failed_images,failed_audio,failed_video,trial_type,trial_index,time_elapsed,internal_node_id,subject,audio_id,rt,device_id,view_history,stimulus,response,estimated_stimulus_onset
TRUE,FALSE,[],[],[],preload,0,8672,0.0-0.0,q28b0s20m2jg90u,q28b0s20m2jg90u-2024-04-14-17-35-59,,,,,,
TRUE,,,,,fullscreen,1,11660,0.0-1.0,q28b0s20m2jg90u,q28b0s20m2jg90u-2024-04-14-17-35-59,1967,,,,,
,,,,,initialize-microphone,2,19556,0.0-2.0,q28b0s20m2jg90u,q28b0s20m2jg90u-2024-04-14-17-35-59,,ffd92e94c84ebbc4f916cd79969d332e354d93c297935e286db9ac159ce000b0,,,,
,,,,,instructions,3,23456,0.0-3.0,q28b0s20m2jg90u,q28b0s20m2jg90u-2024-04-14-17-35-59,3899,,"[{""page_index"":0,""viewing_time"":1094},{""page_index"":1,""viewing_time"":2804}]",,,
,,,,,image-button-response,4,27980,0.0-4.0-0.0,q28b0s20m2jg90u,q28b0s20m2jg90u-2024-04-14-17-35-59,null,,,images/instructions/movie_1.png,null,
,,,,,image-button-response,5,29723,0.0-4.0-1.0,q28b0s20m2jg90u,q28b0s20m2jg90u-2024-04-14-17-35-59,1731,,,images/instructions/movie_1.png,1,
,,,,,image-button-response,6,31540,0.0-4.0-2.0,q28b0s20m2jg90u,q28b0s20m2jg90u-2024-04-14-17-35-59,null,,,[],null,
,,,,,image-button-response,7,36063,0.0-4.0-0.1,q28b0s20m2jg90u,q28b0s20m2jg90u-2024-04-14-17-35-59,null,,,images/instructions/movie_2.png,null,
,,,,,image-button-response,8,37952,0.0-4.0-1.1,q28b0s20m2jg90u,q28b0s20m2jg90u-2024-04-14-17-35-59,1882,,,images/instructions/movie_2.png,0,
,,,,,image-button-response,9,39765,0.0-4.0-2.1,q28b0s20m2jg90u,q28b0s20m2jg90u-2024-04-14-17-35-59,null,,,[],null,
,,,,,image-button-response,10,44269,0.0-4.0-0.2,q28b0s20m2jg90u,q28b0s20m2jg90u-2024-04-14-17-35-59,null,,,images/instructions/movie_3.png,null,
,,,,,image-button-response,11,45337,0.0-4.0-1.2,q28b0s20m2jg90u,q28b0s20m2jg90u-2024-04-14-17-35-59,1067,,,images/instructions/movie_3.png,0,
,,,,,image-button-response,12,47145,0.0-4.0-2.2,q28b0s20m2jg90u,q28b0s20m2jg90u-2024-04-14-17-35-59,null,,,[],null,
,,,,,image-button-response,13,51649,0.0-4.0-0.3,q28b0s20m2jg90u,q28b0s20m2jg90u-2024-04-14-17-35-59,null,,,images/instructions/movie_4.png,null,
,,,,,image-button-response,14,52548,0.0-4.0-1.3,q28b0s20m2jg90u,q28b0s20m2jg90u-2024-04-14-17-35-59,892,,,images/instructions/movie_4.png,0,
,,,,,image-button-response,15,54357,0.0-4.0-2.3,q28b0s20m2jg90u,q28b0s20m2jg90u-2024-04-14-17-35-59,null,,,[],null,
,,,,,instructions,16,58582,0.0-5.0,q28b0s20m2jg90u,q28b0s20m2jg90u-2024-04-14-17-35-59,4228,,"[{""page_index"":0,""viewing_time"":3392},{""page_index"":1,""viewing_time"":836}]",,,
,,,,,html-audio-response,17,84011,0.0-6.0,q28b0s20m2jg90u,q28b0s20m2jg90u-2024-04-14-17-35-59,1963,,,"<span style=""color: red; font-size: 24px""> NOW RECORDING</span>
        <p>Please say out loud the list of the actions you saw. The actions can be said in any order.</p>",GkXfo59ChoEBQveBAULygQRC84EIQoKEd2VibUKHgQRChYECGFOAZwH/////////FUmpZpkq17GDD0JATYCGQ2hyb21lV0GGQ2hyb21lFlSua7+uvdeBAXPFh3DjQkUD7z+DgQKGhkFfT1BVU2Oik09wdXNIZWFkAQEAAIC7AAAAAADhjbWERzuAAJ+BAWJkgSAfQ7Z1Af/////////ngQCjRBaBAACA+4P9Mf0KfMLPZYYDIyQrFxzB7TXE3lPlQsFHac0yKq9Dw4kuPQC9rj4hsBolrStNw+EYsX4ueE+Ew+qpOTem134QJHPXYgSSAZqDOmUGY+Ekg9pP5GKJA4tf9wHgxdzClK4lY2GAqDnPvmo46JjuhzR2SFVq0u9Vq2ArLd62CGon2I3UPW+qaZn1Gbf4Dins9T6EhRwrjoJUvJau1rAwKsVGFIU/P4S6U6Bph0q7mXmE4nK5bkIvyQdBvm/GDOCeLGi/V3ZDz1EUv9LAAAAAAAAAAAABBe3tFfswjCDS1VUKNaVNjenppZcLyJ2oG/0sJw/PftsNCnA9MrUtNpQeK4K/Tkd4GLEhivlRv3J7lQdoifF1yaq3n9H28ZTaRe/SASbpQFjNB95KY9KEsb/YT/qVUgeGpQuCRSUUly6DNQ9pjCoif7hfW4CBSW6K3DQxtrIdZvNDHxB3Iw2Rwkn1cAQJ3PchbgRPThWVXYSDIQcOnWIRcuf9Gg4ExmLB1Nnw9n9KDT1RFjmvPaJ3alzFctIN/YlJZQbwtn0r70RkKyBtX6A/q45cr+1Bb2SabL/GQt1DiYR8O24geJ6dIY9B48uzHuNpzcyEtjQsj7PkQw1IpPkUhAP2euKBipoIuvArhmEEkMPMhR/Neim1q/XU7Ft4uuJ4KBpTXQGKY4D8H6FeKYbE9TM4EiA03fCltpsaS7NMHW695wdxnec+gYgT5OSF2E+2IKE4jWaKw4Y9r0lsVMn2AcYh4OSsuRWOZuMduagX6nOYF+mse+B3la4LB3ccSl+tQFlf2hfj/HBZVXkJtruRCER8Y17I4Zfjng5F4fqnF5OuZJpODURSUhev2pIjUQbmVCuD6Kmq2QIc/uIW0Hku+uG+NHgL4J+bVb0DdFSg4lFCMWM8ByqsVxtYzZae3u0Ia0lkdyCdSLHcwgZuMUKpL1IvTr8w+hjfq6dCAr2sh+OV8taOSrGwmWwd7h5QiUvxl7jR0YekNBdxC2LzfMEZrbjr/AVTX68wIaXvZ7ibjTDtZYYgnPbGBt54H0oH9C2xiEiaS40kx3WxXcr2zY2tKalqlOByuZaIQuqRkYnDN5IfeailEAC6t3xe0WmoxsHOielGeOj3S5FYE5ypQGsVvdVxBBqvKDzNBrgOX6IjBCYwEaLqe5zuEsYpqOpDFZzhPMY4QaEOVy/QNtLBpjasMnCCb0IlglN8Dta+qnC78Kr1VIJRIjqZuKCfh6rjcxD2YK1Oe+M3uICJXZdNn27unt8opLy8my4vQ3MLas7HTokPm2Ze3L7H1SVjAYyoy3TL08IzzxjtGyFDKe7VnATyiy67o9EceR+rGdmB7haON9Mz+wa6WrcYyTVYAKUgGJ9FmqD0vG3RJ5zwsuaxlqNDgoEAO4D7g/4K/wpRUKUQER6rH4YBZx52rpHYAQvwbsKZGRCwwT82byCU9nweuiRir0qyRRrvT/4HiRx8KwW7SF7VyCgTjJ+OSBsAlup4Z+55ynczIj0dUzhrqE5g4QY4YaGpA2jbWN4DatVAeObdNRfs/FANtzlWT09Pncg0B5EPzKml9jOtf7q2q/FxxdssYafjJtQYbXkYauSg8i9/nFO4+gGziUS0GlfxWiSQ/XyLxY4aoIrrfabTp1RYnlX1iLVjf5c3zSxNYFEA8mklRS3QviO77Zl5a7C8GM4NABE4F+fap+2GDvFSakjx53BiIi3RJTjYXBX7Nb+XvenKi+o7BCl4sRCEFWPRCZxBsdT7lH4xngASIUQn4joCyvcc9bHcvPKm97O8TQK4JX2Mus9A6zflIpBnRlmnI8Nm+hph+MnssqK18VBTK5LX6DI/tbtMa1SBdYCTCpT0rXlLLhc9B6Ea7LVqzX0Ycfx0mgzIsPu1DVh6ORV5kVFlrB5UOUvazBQqIUQ8926Cv1LDXBhS1GsHiS/lb1qe14ReN4sj0kgyuy1utEW1g4YOPpzUghFhPs5xl8hytDrMLWoA1t8FU/nflCsDdkb0t+uDmVID0Cnflzag9uItLLtspwAelrvFj/lvXr+GudCAoUSqWZ0pwQSoesNqMJEKTeQySpstUu95gOkV1c1L7ns8TtkJgVLySvjlcST8Br5zIio5H04IAWwM2NrfDPIwa60P546cBdO4BrL4YW4CoIcG6oH80BQu6OEfiMWpBagyAvWwxaFcev8svTDzU5iHsiSae6v/5bFVtdHYIDrv73n5tIncA9AF8HGN/6SxIDpnDjDqYJcxieCKPX+JQi+qS7aKb13SuE4yNc66XksOuXay4m/4mR0cJQfB+DYk9YfcSn5zXlW+YypXpiLA63QjY/HBmck1+DAjtXkB+cjD8DsFmQ8E0d5b9iGOlcSKC0ve/7B3ZFzzXs8hPH7oTedbVvimM22WoMLwmW3UNfBiCBOjCkBiSCI/GlOcmi7t9TlaTMYL2IW6/Nk/Kiiwzl/U8/ebPnrBVBg1SEqel9Orn79ZRKjk06IF4eeVGwuNtsJyf0GU2+tKoFbVefzij3mVwDAoOqm3BvV4CLum91QB82kZWmqHl///Yt7qb5UDBkQA34CX5qG5WmQe/TApHIkQo1gC0B2+5XWjQ8aBAHeA+4P8EPwRU2/p+9X/MpBUFZP+6wZPLvxXaO+mETOerTTO/rgDrOvs22Zh0BPXN+LPl3DdpIlndJ288GPjks115m2e66j3PZlQeD93cuAMxM4B/FFd73CRX6nJI9sknvIfXtZtVR87tx63xZDAA8AbasInqRisxnrWHHqvmv+4/rSudlaisiyKH1WyZ6FFG9sNt6U9pIRh8kKWJ9Ukr2bGBt0XUNd0WytkQ3jcTJ8qktl7WCYIfbHq6Z4ZdQyUn8ZG+5umzb2Cwt4bc3EXz+CPltWVuZaFI3x1FyEZ/pHy2Sy/TsGesDs/szdKGGNbSFBiORgV8pyOjwb8ead1aVbHKWBv605T9DxxnenKjab6g4cPGng9IaRkpkL+RdXFOFZyRX9/dFwp9ewp8CisxoQ1VgFvwuyOTFPYOcuCFNIYk4IAkVOmXr24+CNViMg6dICZgaRcJhavF7ZSdJixw31Zx+xIDBX6F9kAWtgdZYWy+zEQ25O9F6ui9A+EI1sqDMLAw+PSdiIJNXmaJNcuxD+E95g2c9ZxTpb3oIeuuwVAPRK7QiOop7aP9CNGFM3qKtPDXR/lCcvSatA9THu1j+8IHVzwU2x/e+8nDs4+gzbRHFYH9a44PEa82m1n+l2KEWfLGLDtRgP+lvqx6ugZ9CA0NJ1MesGCCbnXk/e5LvaD1uTKHKOtiibVpaT87XDgwrI4OV9tkFel4G24Fte1HgWqJVkLS/04XyOwaIbbSeA7oCYqJ702/lXtjL3wx6Ih9j6cGkHs7XMw7ssO0HPELN0QxtS/6fst8W/h6nQsRaNn12be3McxuV3bsADsd2EwGhzbHb62Ei6XXyT+cBi3H3duXEDGUMbzwCPpsLs+X0dBI7QoGFs7WBWstnhKQb4/eir4oFTYo8LdPSyg1iqgS2OZyljqrvHuaVMbBBUarxgr15iKyCE8hPeIJXzi+h+jzvYfh+D6dTb9r97ecPJI4vda/aJC5kuCMMwbbzfb67eUgqg9hJqeNZOY3sSBbjxljWLlrc0b00ZQm21m2WMSkg8rdrk1KTmulZfQB9ab8CkIwdRX+2tNmcjgUNsxHwZMWWU81IXZnHJONffig6PqCYJFYaOkRQIXZasmzsT92niMaRWR8Tj7MLPgXxRGFByd7wlwW7ae17XvFVjdWPxnpBuvPka7AsIOilxKPPtL/+3abwHQAxTYhR1gDdfZSdCOD8jrQeY3gyqLmaEuvXtiu2nYxZeAkJDrHT+V2/sTvaXxqBcbRAhQHITGx5KYJZwkJbZ7OzSjQ8aBALOA+wNEYMoRKKZhConPn9aDcHefSZ3pjeV4irH08WvW02H2Y6Q4g/xS7LSGaNPzykYuPXhhWEsekxq/P5m5P8w3Ib+vGfpb/An/CKlccD6KToBptCMautozaQPu7cnap/hOO67WslsSFXqu5kFmQCci9SQnkXHn8I0X5Z1CHtxu3v9Psg26iWcAgeGCe6R00miUIRGhZSeyHGZpiUVKBEK1yMQrTW3hZdN6dBKoNJjYv5MiBQ3bxK31bLiIyp/FkjE+UBNfDSvnk/zqpPQwJcSgD2LEVSx1IHLehWR5SloVjEAQIX8jxJgwK6mws2hNyXD9+Z24aSRzE5jFZAxqlhdAwD3RAZtGfFbksldVaiqoIWnccbL/T4vEI9WHs0lSBa4+bv0uC+3hsibOj32ibIN1JVspddRcoCWMDgKgp2Mqjz/Euk+jovKswzPSFfy/kObVsqQWo0WQK9YBkrnrFZWeIXAB+KLtczdjgN6brmhZg1OoivR2jFX1EXdbqGJsrKu7EtAlns3Pg9JO0W2HW9TK3v0MulBhjwXhg5s1LvpK4V5l0n604KRyTaJCi4mmNitk6ryws3MQPPUYOqU0CUcQUSmo0lhnfr7ODMGp7ZvEQtE31qKfmu30BgrGEv9SR3GwHEpxyDeZhwDjiKOOxgVxtdWaJhmzgmgwnPOAAL7VFVocMSTEdFBB4Ovbz95tcIT2Q6ubEg3+nLfbzqZSa83M9yH8V/dnYKLlU5CZEJVsz0/djvySUWrczWlvzJM6uJ1Tlm45gHbjWzrUba0dZhQUjzx6JAKZrQOVucSRcL5Oqm0i1RZ8pJK2IHUAuhkasOIA1Kzsw30txmiUdI48kx0vGdq2T6EelU8toB1ec2xm4yViKOujTJ1XdBkLcUE7a1Xs09BaL9pMyemF+dwWRXHA5bUp8Wpzxr+SBOySYAlgQyzk1Xw7vD8qY7ppg8b8Q9SR3ASAbtaM2NlGMHRdNR4ZBfBT+3Thi0gjlKEErQsktlaKeNRbL10ItBEJijWBUITege6tUuVFJ0pE980ENZizXM+W7Pyv6joAvc8jOsy1wq13bt0MdZMris8EzqHzceMpgJ9x5EyAv3HuvjCPgJ2wELPrL+uLo86zdVTvoHAkScYPOJEXAvzewt8c4pTfqziCVIegLPCQSGoGzwKbnkNluUg67fR3BZFasS93MtXLg/bE4urQRM/Tl9TRLdig9Da87p5niiNVDdyRKy+qeBBLf08rmTDG9xA499Y2EvtoTTWx4M3VQFu7aoQV+Byj/9AAWuujQ8aBAO+A+wM/Kx6nvU7NirKQXWUVPHSS09a2ru6CYWNErkvg26Qz6vDqBuyZLhM/12thKT7zZvw2FTfkGXVHhicWHZb+mF6kfkAMpMSjRV8sI0NTQtV0LXgEodwIJw2A4rwRFcZbfGs+gSaA8fmSbHQSVXLObFTKawgt2oylO990smRoAGo/5/d7riNgOtwlfd2x5MG7uOqGKfcTkrXN1A4sNsOzFEVjn+ifKKMtaOw26eawXcb7uY/1czaYZKmbhHhvtgXLPNNqPikPMWZPjDT8E9B3C3n7/AoRAKZCXFjevf2X9v4vvu+is38/wKSdTEOeSj60t1vMJDC9wtqhPd2pfXXdhqmLAZ6yBXN/v157/hE3DOy0CEozRprOGqjqgEGBJOYD+rN9hCPi1LAtisCix9EGqNpvrrDJYWI6PrsJklqIAwq6YDvyPw+qUuwHl231k0+eeuGC112qPgKSjVI6bR1vGCLtW2yEvYMi8CELhJQbVTPMACbHBSXibJZ03OmHYjNwraiMZi6k9FginXdZh4PXcr86RTgrDsK7l+kZ1iYbOCtdPi/ekdvwqY+1GF98fVKFHmIJczPFEuvGWCjH0pqStNt40aq4kZwKiivWp2582xU9MwvNkXZGAp1VyibgwtFshc8j+mQo3dvcn0LA7SccK7A5ply7Ekq8fMiLv5mo6zppXKuQFeEe6UaEmY0Iq7Mhr+oFkFHhrB2silO1VCh2OF82VmSE0zxRBQLcaw8Z+14/QRxq9cc8Ha842NDYArjHo+hKNHSa+SL+zRzrGotHBaIPvvnsardQ2znrpoV+aoT/dl7ruPak2lWPJ6aDBJU9m1SyH0ip8IWdNck149o+fpeYUMB2UWsSJUeWkSFm/7rLgNi+9c+zjZISFuiD6REYRHhPdcZqQamXnEy1xvtPRWvKuZ2+K60oB1KRiLUvkiUGT2GEcB5qzjqjDUrVRPywtabtqnQEKKfvTJTk/ubeWhgeWOpr29b96knEhYGP+rIQQFqkwxu8la7MXVNnS/ep8KF/J88bFz7LrVPOMPNBgKycxSgLFfWgVjzh5BMtOd3kDax0L3UquSURVES6QETZAlIa6ocBDKFXu1vtg6y7/yiChU3iSMwgdsePAyL74zz2gn0abrzXdiGat+4ypzUw76U+fa4Nqsq3laz38YAvHeTEdxqADyYMuk8NT2a2GU2S2vPh6OUPEQ+LYhzZbqcnz4JtVKnY0Xd0vAYl5wfgVoOxRFRb5yudfkOBVG8bGFm+yBNHafkMCkQIA5hvGbQwsYSjQ8aBASuA+wNZszy6JBpz9v/hsJEV+wlcQ0lKejZFnZIvf+58wy/7Wi89gazfJW2oS7M3QPscorUNxc62bgAt3es46S0A0WYXox0lpc8V0Q6lR3rT8bPYsgz8JtvEf6B/c0CjsSJKW/3ZllqBuml/NZtSdPvTI953aci58ucIVo8uSjzCJahoHtyGXSm4OFYeBFmMV8KUAORFZF01HaMGQstcpP33j3p4zNGVcMq3NIGfgSF/tKkE9G3cVwZ6nbYAsrC367quZraMiIkPofFRwan52PrKDu1qKeDkZlFKqKCFmdrFle/rnHJe1HfsDOJagy6SFdRptmGbLO1dCyCjt/uiXPnWQaGNVPCBPGoAXN8IvchDgq+5p0z5gFohwlxwG4qnSoZao8bQg0Xmx871WO/jLHFu6V+mGDyqDY2VUxXClsgryKPNbz8fCsLBzAkcuTt1a22Ds0ALoGT64LX3elm61D49ZkOj/TWYJf8W6bxGTq91rtuOSZeTEaQu11ZtUyGwVt9YWFzLLw1+ccKsWuV4SemntT09PyrhiiJOCO8dm8IT+tVjf6CSCoZ1YzqNVUNwzcAjd87GRXrrRJFS5S5BeRCPz7fVCOKQQDK5rcpID7ZtsNCqSmDwMKwbGYHg0KJIXssWxJg7kijHAdRCbiUX1+YDJ5U0TwvNNY6XuQUi2osND6fbza9NaHIvDe50DkNJEb9G3ieCJhynhXaXRkpUv0AMWbrvoUUsqi+fcypgfBpBbv7F4ZT4s89RsNqUD/5LWp2lQK3Zs6DuZcp1Lx+yKfvCBiL7moF+H/HcHvOtdBhiLM9Qygd6W+sc4jREBvGSk+6/xRXJ//8cpfgvlNBpH1xfLLRQUdOIhF9tzX4ICXZ00C7htb8I7MwEIr4f1EMcakv/v/aeiZjPAkKv5VjEQpKuLqrg7uxfClifRBj6K8Iy8XcQ1LaRN6V1y2rpK08ewVTENqNxEmKjvym1a8Jr39dPv2Nsff5xMfekY8Gz56aCZvujC/VOkZxZMtKP/pdXsKezTf1Xr7qaJxXiYNV9e41zOdY40HFEEbQwgpaMZIQjC+v7lORkHEIa4ucr6kXiZbIhrzWJiAlstfu1/Ms9JfpMKhUJCEUpF4pwziHBsf8gURfLSkqtGdYMPQclcTpP1V2lrEyW/8gkGkBLFLGGMRog0A5yTItbRxpD//bqnYPbKnZ12zLrrezN8CtP19N1sK2/4PwGIkzHUjLKcIops7IfcaW8/ObIVCGVECG+9D33rSN3ZCKnI4FhfEn0nbjm2ikIwTejQ8aBAWeA+wNQi4X9iLgf3CyHl1tePvl3fU40JSYAKI+gMRVI7R0NF9vXwMpadTdZJALVV/ro6NDYc3424/zrWTW09bV2pNGV8F68oGn3Ti4jnVIJmewhTQ5gsXE09Jm42gasTsbRgzlywEiZN11cAruYPVkL0j75Gc1p5ATg26yQ/gjMO/LXi1IyL4SbGQdUj5F5yXuEMrc+i3XOF9UhpgKZQw7pOq0TY59lao2u+gPMpiGABAQBmp+JuVf8KK1WRdV6YThGnfP2O26O/lnBvvPRM5h1hKBrae8ApOThuDy8w6iQYIQoYFdxSJNjCJqqoHRu6GzCdoFf09wxJrM6xRmRT3CacNyKfqz2LcMsjxeh9pUo/ICr55WyglMk49Ap0ekNwYaynas1wGrCCQQqV69YTGoktVaLIjoe56IExoHzs3jK1zEly0QvTPVC90Hay7IocEr0nb6QfnCZb2hpYWSGD3Tfxjm1aE7pg5uU7KGwKc7y3Ll9/JBahg8t7fxwCzVjuE/VmETmBdVR0+O08P5TlBb2DmK6IRmmkuRQDw8oSf5gca5mC5jHSB+LBN4RsyAejfTX2IpS4zYka9YJtpPHynVilv9ZPCjcyWo9y6RmGXVaG7wqzlrmHA0FM+mYlmbnvP0vjN1KjTbrrR9U7TPBqvfTtL1VH33zegIDxtcIBtnTUy49Z6z2Qxfy0QR0uqR++MlMdyTAJJdqGYPS/mNFUXQ5d4CLkGxwU0gcA/EQD+Z3Ce5q8NC6DNdEEDhj+65YMV+3JmX7uNG8YaIVeqdb5XMV47lErMbl522NQa8nLJN8a+MrNr/veqeuPEwnRdJ35CN5kUWrKwMCS82+l7H2P2qFEyBhQ/3fBJ9WRwgtVFAM+V0v9HYi4Kn77/lwi7FMEhlk9lCFWmxHbCVfeXjozigLenw6EXpIs/7dnmIxQ8LFnQT2pk8/FLYOQ1ISyfiqQCyFf2eqx2SwMwip/h6qBqmqWp7I9E4bg+lfv1qE4Ukeq8zl5DbMoA02ukmZJkSKaRxlSbEk4LtgnYJn0m+34Kue0IfxE625X1LpKZvXvO6ebzxN5eRhbWFqJv0U55wrtiqdr1y8jLS5cvL+2HHxgD3ZcKEcyAuRY7sEm6PR3aO/sWgNpxD7GGmtHNGQSZHl6Ugryr2hyEv6Jvc12p/tERsEd7Xdr3nC1keTDKvOF6tpd/h1brvAaHSjplFTDStJGz3RUTN4Y9aJTsw5ec/QQcMVEgK1w0NwIjDsKhJbrA/7ZyBDjS9c4ZyQBKtz4Xw1sMW1ZqijQ8aBAaOA+wNAbpwwpqPbilUcZb4qzkiN3OXQsaMHZKFQ+Lpvdv9UW39yfIMijSaxZ6GnV5+oyie49KTvScIJLEoFtnWE8Wi5gLqmDJ6hONUYQRAprbIyeuTmlnZG6E9ip9ooqkOOEyGu/JjPvpBgEOA290BdkYT7iorfebdqsonyMWT1qoqLpzHLmQlFsU0AlgeB7oTaKpexxAeI/IEhGAkebOganxTUIUDtLUzGtSqdvGRkkAAV+NYHkXtE3kxhme+AYFIZUJmf4uJYnbFzMHFmd4Zl7k4fqBXqOPhJujfUslZICQ0Txi159bgBsFlCHfaPRGtz7/w9qUpmhP9t0/arKzCC+5Nc314l9UH5z/JTK7dnXpaveDRnhkEtIojp/Nib534IFhTgQuyw7pIZcOfg58YueqPy9CnX1LLdngr1+BsrRYYOcFHBOadPJLpnh6f4QHc0eDeDI8JIkDsTSY/iyywjxn2Hz95HDybzmHvKHPHKDMrXWs1PdHuGf4yHavSZ3DyRvE+tHOr2WvoXRPvj57Hr0CPYCJYs8z3syU6XPJmozzHFIJIKKJspNw+bAXygl/QB26WUNVGznHQMWakbFyCk4JG/9U3dSB0RK1N3ruOJaPHZOlkKZ5r62MkXWttDiDIY5f/K7w86khh7AbwxT5K8NKRACPWdLdDAvbLXUGSZdQmCmdEWPTfSOAAIFsETEX/irbNVCwEdI8rhQIkDJ5V1e45zIJp7R3taf2FhiUS4+sPw+db5sSkXQVvTGD3nTNsytvagMKrbZC4UHCoTU/5HC8DIossPer9HdlUJUqfizk4MsjITvj+lYC/C0a2UmoAiG+8GsqXmXjqFihKJOX/GyBjfWWCRwcAC++Td/W74Eawve8S8eYkIOPo9ME5LrHOuPiFm0mGGxeg8M8CFV5x+quSOLaAvPyzzI0m2x88j3Gtc2OTIx49Lms8q5w1fk3vHjcM2ktYYyQYdAGjiz3voWbrmP9LtN7KTjvs4xlFl93AfmqBwNcUV11z0vCiFkDJ8JJaNB4fAiPoclwk7wJyBKKDvsi+u4SnqPtzPUlYkQbzRLHcVDwoUlvCebPSPXIh/esY/JG26G1C3srd1kg+dGVXUdOJRsnalumwlVz3DF6TKX1tKDpwoaf1daFQlvc1QRX8XHAYwYEz/qexui+OcDT78UKzHhqegUonalyB4SiT7lJhm05SMdHlYQA7NyINhScX+zOOZbRHrLtLWoqK9HubUsiVjXBkHpYotK5zrkTYKCDoFTf4RKVufQdhLkgWe2q+jQ8aBAd+A+wM/D51RUEODqdmzAMG9/AHfZkCBV2NvYuObIsbTqj2MRryCcMwkBmjl4SE9l8OifxxntWuGNSeSXpF1P/vbUvk7QPo4lsuBTpeAau7xLKS1hSCSDeQGCXRjvqmWF+cJ+QUeciqcZtpg++5xWkAgwSowyI/A55uJ+mZ16oBp+K4t1X2GYIuMmjtE2x2JrjOmQHQUmFs0JeK8BehmI/97urBgVfrrIWVGe58NVcZJnZM4OaXIzgP0GlvdT8PEmTfYwJhyDDjrkbbkntJX/EKrWE/f5DivLdrZUJ1wr6f7+o7m2g9PgJy54QHSEIFTQkoQHj/ylzN7XFTblP6T87mDM/Eaqkz6nOU19sbmelGzxr6EimwveNuQschjIjd+QAWb6m9mppwCN4F2IUV8b3Ew4p8lhq25lZlcDqKlv2piPmAqilIte6WRlO4ROAGile0zmXx4nNfcFJl5uZ/xzfPZXer3qVIPDsq9Y9yjpK7pLF1vf284U3zEdEQ405RbN40MfjIvhZO708VSyOIsYfjI/UlqfNb8F0ogpaXo157iAdTAYqtgpha9wQBRmmeKbTj0qzXgPphazi8Uv+kd0xaBb0oCqp90/Al79Txj6d/Gal5rV8AIlsZ3gclu6yNH/HEwfe1EDaoM2HM19u5X2NeSWTW6qA86m+7KR25aSPZlB3TOG4w2gY6Pdk1YWx2urx+y1utHAvT7XwHuf29uNuQTQC3iMBYKZxPVFa+sIkvNA4XrQf372M0FjQ+E3T2kRQ0/Ub9G597LUz/TKK3JqyLo0+9WTZP9S9c6ULuEKvFUwUxPHs/YEHXPewBhdeFPmQXlj68a6aIM6WrhtRf9Tad16uQFULcl1oKlDSdDC/Gk06ggfur73yUAbRDmZChTnhONLePB8IeSICNQFd2Z534MDc8KbKAOLri5GeJonBkWNQzXjEZaSf4AbHxKxCK3SJg7YJZ5hiMCXz7sM/tSbgSQ5xc+RtdYM6gK6SqU7BcQa+HUE4R9/GF59r2mx+rRHzNChMx+2R49BgWsvl+iC1oNaI3Pjd+rGPXoglbc0AXuPXTRoqV0bkhO0X4j0e/ezlu3ZugSN1Whs+f8SiUEh8wIV3JRFPQd9LUgD0A41oya6m7aBnS7SPkYQQmjJyKH/QBQJseO2inuwhQ/ivwkVelQCe95lSZsnLU4xz+bc/90BvddRBPPV/Oxy3Cg1LUUiovJgp1MAFC5uDeQRyPY31LQnlcqWpLPjvht5Z5zEpKt2Go8EXtMl/OfY/mjxdiLwA/OgTijQ8aBAhuA+wNQjm0UBuq0Gc1bgpqqwWY5ibUv4Sen2QsPcxSqvgMBxqajDjD677gt2d8Cj9ZSFhR9ZhUT6MgEURlmG7OJnlvTOW6S2fLyHjAAGDqCChDBODAD8rHz0zhYuqAD9ykX2OLhMYPkdFdF0Bw/TzB8zv2t4Nac3GVeHVqWA8Vjcw5ptWO9vWAtOyNannnqpWSGQjHdsjztjC5ReswG37NR6sT6eZrjngq7zrF5W/TkNcwlTZc7IxXIXLhpAJvshbiyV/vTdlOy88nN/cwcQQYGG8QLU9o9aYA6s2qaYpe4+VGcWBRJzAMv7CH6kkYFI3qsOn2oIpL4Q+EtcqNF49HnXznOI37z9EVGGBOyY/Bhf5CQbDOoF1fn26jSiwGwIgTBn79vpOnt0+hS+aMa2i7AlTRccSt2ZBTqULieDFtBnGS9FVC0MUfSuaxIJYG/W/8MkAm3vgN44cW3rXn89XiL3O32wSbq+JnZrhwnKYuQ7h1v4Yurn7ogQ0YDdLi0oS1Tr0SZgcn3aibAE3DcmN7Zts4cVhL4et3QRqp2LqWWqQjat6vq9/fwo1XHP5IKBKoMU2EODF8YOCQlzBoEt/7vJPzAZ2SMQvPgy5PHR52fyXb1ACyMThEKDNAPFlndTlNm5TGYxD/mOZ3ssB/UdjHgVubMh1Xn74KtIaGYn4JkYoHUzbslREPkd5PmmjKKk9bs9dO4hXidNCc5wzgODWMXdixmyGv9mAGGEkJ7+w/3lIEsOwYly9SPihGGA3o+48ruh9s/p8QkfPOycHz8zBkp1YfM0HSwZgCk0Izx1ipoU8yms6wk9ilj+KLhFbEP2GX3hMt7mr6vM7ojuK9IbFRrgwsAPzN9SwxyXV8hDA13W21hsiCXYNYjUc9ikzOMHcPJ7CYlZb1858dhcGVobxUBwfUu5CUUc/5pRngbm9HYPjLehM1Q1zFYZLvvIejjmySmTegiff4Feelr4V8RGHvrh2ylFY9pyxYX5HaWDUW1oOsxxnupjS7w3EaQEp5MWxXhY7T0hdP2MJCZCZMBCDOrHg3qkay5krxq11PgCJ5a/dE+dQEXnsV2Cjj6ZQiFLxjS4VDeTjeVWPBPrwy/DjRxw9Z34WCdok7ulyEq/r1bCf6GycQqIeRAvZAwD72SFXyEODiVbADSLQ+N+IKWFqzVXU4MDeDSnYqjlQaDOadx78WIE2Wd0iVTG5n4e/jsXY69BkskyI5eHr+Mtnup5/X9vSDuyU9dMyyZ+rupGUL5fF5HEjFdfDi1eNnjXitbbnBBb9CjQ8aBAleA+wNROvzmrQqzm/ZLeDw/ggLYVcIDzlbcx3TkBITg8N1VgJihHGRsyQ14eHDE03gsIaF2RsENxTZnB+c/n3DepuCu0xfoocGVnhkOPa/L8wrJFLpRHiTAoS8ozq+bKVV7v95hxpmLFH/wn6n3zMAT+BPN0jpntP/0hIgv8F5npSdkoIVuraUtbfhT0YBGQoSCK5PO2AQ6i3mPjbnVRU4h6mYjnNAf7Xtxq+XXln6epfndqKCYFhA8OezKIkHJM5CkUQ/m+smCCPXmNXjXacXW4M1tMY8JEiYYwJJ+GLCaFojmc58jkPR0hLwON80copZzNsCydMCnmdNjhytRT6HvfkJByJSzYtZspcZkmKPfprtCoJil2RAF/MbhSUCnR0cM93Mce0RTMn0KPPMaL/qsRdRq/1Iv7WqK5TTTStAKT+eugCSkXOImYgPje3HfabxxPPTGjfknd6dfiXdVUfhg3GaLLCvSB6zF9q1MNJc2DXp3esMph2xjSsGDrlh8kB8N+Ly9kAdjTGucn/6olKuy3EafZa2ztJNoUZ5P5Q/VEvVG+P+PkA2voJdfj5WV+QLe7+76NOAcYAGFYe/tzmWGIJNUVmPj8NaTSCdne9RkBgcQSRCnos9U4QCmLIw9wSS4DMKEe0gPdW90w0wL++9Swr23SCeo3RqYh9+fcr5pb0xG5E+O6SgAEnrbbxdMz4Y47x2GpQ60BxayZ9VcewR7pKFmFntdwX22M952mwrIa9hBfIXo1nrHhcYKrkLkB0QhaULyCXcifBNPUNBRxIGxcLTV15HN+B2C/QTm5iHxN/Up/4tWSxQjTGVSo0/NgBwZo7qvgw1XfedkxROhYFA5v1W5POGk2wARST3Yl0lWYvhWG+sNpX77Vf9ZO7AXfvAF7MZAbkOSlZ20RdcA0ZcSrtQaWD2OBjbKxJDDZvbcXzY+TzZP4gKm51q51j9kFwkIYsMI+erUnaol6QqvoIwwn0Wau/X8/T+5YWdq16LAiiYLEEu2NGF1e4+jPJ5tjaL3mjVyB8xx12T/lcyvihB3E+8cQYVEW/0JnVnASalHPsgrwGvLk0+MUcOYay6BgQ3BvoweD4Ag9ZiE+l+bRb/FT5QwoRZc9eQqSyx3qbux9RWACgIpDZT9pT0qgSYHvISQiQw6JOyEE9m0kvRl/z7eEmkAJCjBdwFXcxkObD765ZZDGiRcwKijKkj2K1Zw5+ZUaNAuivN+M1hp9UBTU/1T3VO7VrPnzVlrWwLfRzEDtI7IQiKjBSd6wHnzoP6GdMXSmwqjQ8aBApOA+wNA8UtPYWTqJE0LgK1pVO+ecu73f+oX/9VHtysIxFhU5mRG2ct6igs8p0ACXCpGfQQrRvjzLuzk70dWgct349+/YwZInt6wf+Hr1A6SsPkERvEu5BWhVMqSeLn6EIqQGUalZJBguU/dAj6TySJIXQlUMRz38SqVdKgraeg9W7or4AiVZue7+jyJEYTYSdBJFzsBZXaKACsnyx5DCroSKai3/fD06A3nxw/l0BcU9b/L40uCympZu15CCDjysawCoatBv6tnOiu7S59EOBsOSKFH1vuZB4bCcyJww1/QPsfBvSnHR21Bghm09Ky5bJrMmVRszOK+AqAYiPtlt4/IfkUzoJCmgEsiMJbWk4qDcQPsFZLk5XuADwUkE7LoRLo4t7DrNQVPvJUVB6pkoYp9Sb17HRilVsNd36oPPZyBalFKr1MJZv1uTvHHouq2j6QXGWRLf56PxGYc5ST3mzpb/5x/u/LpM1hL32ag2JomcW0S8d7aCxKu8mWPWTPQl1kIorzvD8D700noT9QBd2ZbmExWgPni4cPDrp9RsNiKSeuc7U0GKIbNu2Aekcx6nvQUPDACytWQZcpiMK7ElSnROrl4Bnf1ikIaH1OKsO/PBguSmU62OCgHRNZIaJ2aE71pIvv7zeXr8gzqqrAkvLNnz0AhLXQuA2sz7HJFQ9hRDwHiu/euTaHXQ1fKtPC5uExV6t8rv6ojnIq/xMnEIW20Pua6fsv4EidZyw+VhYWRbcf/Wtjavxzrq0GSSyk54rfiLWSQyWR1YVog2QdeFrW/Ol6JIqfuvMA6IXQHs6hWAcAjXkqK+7Nsk5eg5NicIi4KOKDMoYnj6S479JNOyp9AScPPQ/4TVswK96bmqRgikxk+EsJMbq/oR0iymdVUgpJHELvm8glE+0EjtKNBUtC/MYcMB0OSF5sa9rPs+5JlytBkjwg+/jrci6c84b4xRnN/aGWEcsIc/6hHKK/Rn60cbqCtdIfoN2ws145VN3EPWuasI4UHQa/BVJT7QR7z5/cel2NeLAGxaPiv7qTRvT2Xp8qcaLGgoHfdqb2OgGlQrf8USTnaRWzvpD/IqoZfkwsSVLlXoX8xpz0ADDq+pp/RYPvs5V+9AxN0NmcZGOfka74uvN4MYILLHIwCjLtifY3C7ez9TRimKzBTIcUb3fkWOHMwM5+JLUIg9A6XxBVI1+f/O2o7XcT/SdwKQ9WbjQpfs7X6OM67Ctc1Cz1DlTp1dAAzCvGaMg06/jhX3AzH6px+5+GLUZN+anssLw0NyOnP8fujQ8aBAs+A+wNQh4XD9eUruAnohQio2396RthkAQUwpARzOsMKI+dfc9ZtS3u7a269oh0SJtijVPn1vKhAk9WshEjRqYsdBNd67SqoEoNY2Fp5Vk9T2rG28VsX69SWedcd6j3afUMjQXEhDRDwRm8dUKdOzfamPjf6KM/E6F/vwgJDzzbmQYJWLDozwduThMpJwap/4ePHqhiSqXP9SN7Tnvs9gt2i/kYfPTxRYGWMA6YwlzWS9VkRiDQIBHMjVx7wQGR34ZsBbMLQEjOzxOzazookqQ1hBnR86pQoa8y1Z6ysXXA2CDay5qMW5yEZASPDn5jeEwxgiexS3Fcb6Jc/xqc70pJJwmlzWAzmNU8A8KhNAIybqfRUI8sif54IHPaDwFvtRIbK3alk1fsafuIcYhRYpYieOcgpg02igz/wEVTaHNyNywA5RCTC42T8Vp9jPTT7P8IiAje1ECNwC7Uwx2PM/lh83mJ3/WSPYCyOplLtIZPfEsdbuHwRuTNGv+7gBKHMUf5wjYEIrIhMvwpKTqoZdrAGQaOn78ix9SgQlIU5iSIITtfUlcABfW/z+fArjP2MTS9gwGONusK4CveOMtkcgBH6UuuM/VMEwBruRJWkhZ2k7hsB+RyXHVtlb54xaFFz5geL6xtEoE3HtcDBvQlXkSbkrbrXYPZXntTxyMjYJGFfTaeG61AaWAjj1FIAY+biFuy903E/auB74EAHup1IkVhK2Xj9k96N+bDWaq0AlTqbVpHCdAKGp8fdP8GeXKu9KYvHWXGyDELKEsjwfcXd96M8Dbqm3YSvvWUTJNUI4eaz5rKXVu0Gjoprk8tho99Xup3EyOtxYxNFajnm5fFZVhtH9106QHBuNM1LhoUgs/iE3yFm0pSUJ7Yr4OyfhqtmYx4LqV+oESt7sjnDiFEZXMFy3sckamQh+IZYTphMiWfkQAaPofSBrvSE/CIlHJxg03U72pwADUUjqCxTSU4J2Dfysek/f3FbpBuTyPjPyGSE+3+cf4lZ/NnT/v9qJ2jydT+4jidOjlASqeHDKaeKmCT8sYcjJijvmu8nqavObzTvuli5XrbJ0U7bFUE1cb/6MMki3O/9DGB+N9AxGpWoOGlXVWS+GRxvCWIg59cRsLyC1YZvyLwB0TW9KBRYMQfqRF21soZwYk5ud4W5JYQXKXQB7WSGRJtiD9zPcjj8dbqBF+CbT3SzQ6Uf7gAD4whzNDp7cB6q2DsGgFA5oC29D7ou9N1O5Zd+ydoLZXdoVp4RLnj0U/yNfF3Ep5ywnZThopzLNSyjQ8aBAwyA+wNSV4PMhyANKkzpY8jkyJyayPEVa9E0vtCjE93/HR0VqR3aB3rmUfP7jKBlThXiFm2ozPcdJpmDj/8qW8Tw3CHbuAkzDTavKkcFemHriRKbW5q03N4F50vwrRj3IEtnyfzFR9zuKddNCycWvL0llE7qasLqS7fKpRY+Ntb+KhxU5tfUOtj5qpMD7XxeJvonCD1h0QlTPYHGyRCX7lJtWqpmbJOpxChi+lqpZOeHiDzZlEoGwEVa3z/FbNUISxnm4xNhTxBTbILMnOvj8TcF7RmY3a/z0JPqhP+QU2szHoCByOowcFJJdeDguTqnLgZJrCNGwWjlGPa+xp/PBRBNZtMCRFLIXP1pK7RyBAGHflsvKooAMdyUVLEzhnJrvH/dnEAAdwFCJvY6InkBlutnICNLMakW+2tiwzR15av5aeHM0j8hXkymxpK/Rdgm0WTF+96/ru4g0UQECkspGB1hTZYIuGj4jVX1gEpEsFKdFHn6VaOJOmB9YGVMEyRUBKiYwSs1nBCjHV/ohRWN1DVZO3BYPayRq8m065j82xisKvxHKt+1DSVGPHgmBRdn6Sq4bTuGlCC97zNuTxwNWF5QP6IhSHahXtM/Bv8f+BwkWJlqLLAzGfi1x6Gp2hFv2VI3jm0aVy9kmOy0yncBE8OCRFW1xDVLmgtdE78cAnawFvQxu91kDmLZOM82SdeLMNZnylDxrScIN3jyGHrdxDgOMd7slPhSPrGV+eH6yzizjxGt9epACXI2Szr0CpTC9oMv99g3mNqkmru16sY7dFCr6nOV3RjsSEKe46s6nwWloroWkCpHrVkebTguzGo9nqrCgwZLjfEnoYfr3UYD823uL7R4FVWo1H+JXxhfCVgM0AaYwvuCFs28aPAnl7MMWCr9NxtrhnnnycfRsQaCfsu/BIvOoomvemtthkc8JBeSnlZ5Nzp1icNv/vM4bvuZM1351KmOfCWCgXjtJm3npXhmAqhyGf+dPTBQxC4HHuiZ7gGEDouKSfycUxr75cYNx6fc3q66JTPIG9Zog/6y4WKuIIomX2QHBhOroqTsDBhBJOhr0gpjadhhbkGE4MSHA+iuPuQ+I+5yb6f+KVOjiX8A+KaMe6JedbJHsDZkQxZ2X9DxbhJitwduD2Vx/mxk0Op9AD0Uc3ATLTV/e6ur2Z5S+Ai+DuzkvfVYuL7s5QTfokTZqZPUzPwr18d8dXqqkxMqKlmmPBMR9uEQ5Ky7OPxqr2EH5y4FTVGiBZJCo5eou+LU15o97VAWhlsLvVf94+rjv4CjQ8aBA0eA+wM7WND8oP2vUtJ1HLu+ETEdwZ30dRAOROXIrWhBLhfdUkhIoG5xo8LL/Kl3ps/r/SHRH9U1P4sGQcqPfg02cjaPDpdZnImuOA24c6NWVXlWAY8LPgoEPfhBTNR4XhvQvu3xBpN+p1ltFYmgo541imScmUwyRi5rk9iULM4jovVThdVdPrALDDYAcUOQgeA61K2gvrold7TEx+KHa2iANgCu+HE24IWAZH0QAE0fOcWIQbpXHGGKf1HNnlWIJswFFVf9tBgmxcO9Z151o75hYoDB7zc5ZvnTjEPC6pXb1/dm8Ju8ZgLxYHtbfq1PLPr1KIW4Rp916OWMpECR/vBraYFPeAw2tr8Rf5+2KD6Lg/uDPoe5pwmJNrJPa0GMsyd96nNzREXlNn4guK9k8iXAVuLUigqlJ2q+THoJg1NTWS+d5UD19Zju4wxB3s2DKY8VCTEc+ME1GCZbtUlTxm9R1p5/IvUiMBojgQAALdrEJTQB6I3hPjIw9qs+7/QI4HTklVwmVoc85FUciIFYmAk5GhGhLtWBQbXy0K97qHTnLYoeFsBuvxmzYcwJ3lmFEMcSLhOpraF3BfjNN99FlPEU/mhooQ2vAgHmbu3bKkeTD5n9NWDflkwLQqnTrFMlbUsqY8E0lembRv9WXaMIPIthligkxv429eRLZsv5UvFhcnFLQI56KCy4SRI7mVLQx75jfvdqAPUrhujwBwjlk74oxAsqUJ3QVrU8BtjmlY/GoWPVHR8BFelkf9Ee+0EySMBtm+NiFc+mYSvObZ9k8Ap70XM1gzmwx8bufNERUCY3Oyw459lUNBnblgs01YkAMKacLcQVRKExQQ/lJyf1bEW4Xx+VGCxBcUsAMSxFRPsSNeERyna4Qryt2G2jKbfEE2SlgSldmFeNSBAsOh6wIFKIJIauLGy1dpZeJXk2FhMqkVoMvbj3v5mpDt8d7UgyYnG0Go62VWY69CwYqiFpY7kLL0F4xWcCB/HfBKtTDhuK4qMC2msPFXq3FA6IXcSQmfI6LSyanERLNSn69nZNjWjwqGO6iOK2ngFjjd0qOqKCoRlXS1wMmkC1zo8w7jtEUqvxdw8Ejirsz7OPig+IAf7CPYwPMYOAuXFomhSDw02T5TciSwW+GUPrkoHAJwdB/GawtSnkP80e0IiBoTtx7pbVwctunb2pVn8DespAp4GldSpfltm1R0p1Bvj/osZQ7k5d59JHorOPDyrEfYe50L9Lvr61sqDicwAFb3UICz2Q0e2KgkQKmtvM3Z9IT257G3zoMUijQ8aBA4OA+wM7aV7G/5vUu1azwzYKS1OVnsILhniXtIOM4HWAjl+nkS+re7YuyOPsmwpfZ9pgoXFpRmNS4lnp9Wbt0q6KkqFaVx9CYfZNGgbXSKzdwbvtZPdTGb8inva4262SdqheozdBhH4SIgVHmq1g0pr9LmUFuulhpY498aEeuuFaN7ThQB87YgyIpePAnnLDMOkRnWqhqG1NMWLEud9W79bEZxjJBAVmOTtB0oSKmkKJGoSZ9TQ0rojoAW+fmKzRrtojez91eVvEW/HzjkWOrnlwTEFJqb+2MCRPIMPM7yBN2mcCgeucOdIXw5twK5IOp1/3l2bSYf49oxQjkbFEqNqEDIBu/qRXoRuwew8bKbZeVRq+LdCe7qZRGfMmsBdDesnAotramt97QxbN2riKI/fFneV0dp2/G7PFczYV4uXOi9kFbCJf/pEXtt6fJAK86ksCgAElC1k2rI1ZoKwrgPi8SmtghN/3Gmx05uLjcFIsePhtgfoe9GJWTVVvrrYJnckMKzG1jegLpsrFEX2ZRGSUptufXiJgwzSK85LlbFXfC0nMxWiPI+q0V+8b4ai7qNFuYX0luVNnhmleLQYqbE1AurUN533+SWmoa3h6j2kaUEbycGQ1rvggQ4hjXujXYboqQ3IyFMzBiT1P33PwzqiyxjAc9JFsvh0LTcRp32mYnBmyTShWRGLJUD22biM86LyiD0niqo6S/2E9Y4BJkBOGh/iVa+9LE7PbDkQ2XvlviU3DB8JyuUWFKxVHd8JLCXHsisq1KmXzI/UDHrjeEQGsl7SaZEIU6D9o3DsvPKa5Btm9DTlmrKjZxroDd0gspRzBhimRqNeohAiKZ1u+yhQvHKjYIvmigRW14WAkNkmZX9K9HuAWoAQFtQCoJgzpSyFmZ8CM8xv69b3brkh29+T3hAFGxFtEvMrGdVlSJ2Wy8117V+ZR8c26Zipugp4SKGzwW4KWhYsb80ob5RHkDAaHIHwpzHQ/IsDzLtUde7ydasyqmv5DDI624wpFOrZ6/xQmlsQ0Q6QFDK5xmiseytGsYdAEN8u5Xdx+DpFZUgevTjTsReFJapraf8Fo+GUmIm59JULAFECAky9LtaGrF/Exyn6WMpjE3sOAXfJtelzR251um6zg6Bn5SQshFNPoyexaflLf58PplSM5e3hP/1RXM2gdfPpCs6ey4EsW8cWgHMCuocvfMsa8R76442FK3gEt9zRQUJUH9llJ3fEnVeExkrSgOwX7GU3FXStBy0ABEng4mHVeN3WG29TshyBSF2chGZijQ8aBA7+A+wMiWvY/9sZsEfsOuANKEbclIx0UooGUkdRYEoTPmQPh7gisiICnyw613g4x9XaLvhwZ4Mi5KGpikHNWgfgJ0XoYZLqdIB/cmsZcVTCTN9A8AYlwF6sLOORdRubsNHEgorvzDT+mOjHLCpPq1CG+jYqLqb6K2eMmxDmt/CTSt1YG0FpqxCbBm8mR/7GpogbeDpj6C44C4BQ+gALlgroZd+aLQkvY0LBHKTZs3Yq+smb9JfkZFemA7+quj24rB78uTYuBR7I2RJ4Ckvpnv+V8IWC3vWCgdtuLkkMP2f3a9Y9ph2nWT8QFDXVdCWjJ6ZMRYTaiKXIPsLylHEngCgf+ItQnB4b6g2LLKHqINfNF4lL/ZeX39AYGizpGVMWO+vttqn6ls4SQZSfrbcBexy2slVNCe2HqZdHnIbX8l27Sg2GEM0+867j55EffpcxXqbe57CyNp1eLJVvjNu9tZ3KJ3+R3PeUdt0EPBFz8FzXFoOHLt8clZY5Ti6t9Vsdsk1YYeT+zgiMQxSw/wChc6q243ES3P6sI1IVNfBL2CSfTxpm6SpJ+vxIOjMdrFc7ZqUqlC3ekh3iHvfq/RBztNT9FumiSLFHd0IOtqKJvRi0cPZkAPKs54NFDtMo7xtpmoJet4xMX45Qs+9krGinoeOd6yD8E4eE4ZezGgjusGG9VmyHyMxWS30RXijxO4UWEZnahTkKgvzY6VP5htLnTtqfsoJ4UReuT8Ce4V41fyxX1RDSzEZ6MzfIacFbOqK1qsuVWrXEJF2GMPsxMglsJu+Gc60qUeyqE7iuBDZChRZoZHWXb1fdG7u61GtT4JCyFNJawACzpVuAFfAuAbYRcl8rojUMvQD9cqzau/XnqeuA81u06g9aMvpOiNFrR5Gn2s/g0YhcqqUunqA7Wy23Q37MJrC74Dql/nXeifoZWlpgaTaDRToZmgb3QuxtxiN/nfMAXRdAos/pThaWRgxA6AwXU8FND5Y5tN6lL2u8/Tm3qOGEoP/XOvLA/r1jNbMua1hRtcJdwBTeJHiJh0Yg3HyhezPovHQ6oba8j5Ztshh9nvHXrTsC3O+dXmOVtKIciVQJHibCBKj5c2vXp/+YfWrs/tpi2Yrb4znZzjzv97BmoKkL6Haf6WH1JPP8SckU+DWCted8zqDPF8P8rqVeLPEy2nNhRMIVzYZ+UW5vaN54MYBouKDeASuG6QleuenkcFZxx5TJ295iaApI0uGEZ47zYqT1uGBRdliDJEPs1Ow7O7HBsYo4hGwu7HpkIhT43jFzDjmyjQ8aBA/uA+wNZ5E3jj8GV5FtHXm496Gpbl38RYGruIZmzI/Ec/5L2KQK1ViMmxSwqeW1IlqG21fwtudEt//AWDFcSRimDvT4c2hVhKnumC/k3Vcw51xNZYP0+szgkihlYBX+/okxDFI52eIBgOM/E0EJc2a7eZcwlTm84bqVm7uEFjXo0qxK+gHS7GBJ/kt5HUKSor3EzxI6hpAv7drixl50TrQjqV3+3AQS5IO8IN4g6dnrV7Prf8aw3EU/FO46d3+yg6H+pP0BXjdlpvRoXPt248iCpIpgd6MOWIrZe8isbju0LU3quRpkb+DmhWf0DqZvWQMAtWie1Xn1N2VB2SqWzhsCDXGm1U38pxJtuacNXPuMoPAkdmMccmHZo4MnpOJTK0vqstGw5OVrTdDWOH9YsIpF2r7LOnExh6pCFf+K15h208S1wLyTYUMqnTuP42baSyMOoZgr0VZOiIveA9vIr17Rv8Zu3t8SK/ssOPo3ERQxmbmhTbaq+CJN5VrTeyIxgMNs3Bk7jg3G7n7LfQDiF+dpTEjDTuMUSUsWzdQHIbC3WrQL+CLRiLhm+Kom/AUoOfkxwfbqyGSvc+pjN2+h/QeJXvfApn5pyItP4/5he3x9VeeaFLNwe7fd/3iBqneGwqo92503hMbPwqV1TrcleF1njb1HGP23VPqVW7BQwhr5Hu/eNsvpZ5bBxe8hncHKlxSS/gyUA6LTFHQS0wRkvuwMFHAB6U0tRlFovpC3Gxpo/jxleuV7N7E0q9FrhOg/FzvU0M37XtE4a423nhNt17U4gJCXxgJGcSnQRbtk0C+KjhrZ9Bu0x82s03pjt92zNtCp/7T8ehYp++JGUBbG8YfsqWzSxQID+64+9mfWc29FcsZiN7Kj8a9yR1Bx4VNbnMKCd1a0VT/Mtp7JaxnQD3ZlmpMjMNOBVTVdNuFbGjrV9pH0pIdoEgij+c9P8D5XSCAM/P6+EZ5xh2fLVopy02sSLi7GZNYcxCcYjqkqaC0JWdjrkwv4KPRN9/NJE/fnKnUeNZjMijrYXjfP+hN3/DclNPTVyHttMMkqCF/8Q1/Q7DLRIOMzKpZseLeAEaZzaPJUL7ogf85sAOQ6bwthpgvhAS3OPqgdWsqVgzM/8OUcMIQ7PwtzdqW67LEnKcYp1fD5zG8Ccw5QoZAQbKAfSUjJXAJOixs8Oaa46N2+5TCylNfsiWt2i8/h79CAFumQjLVKukQytFQmiF0O2u858Z9gQLCWjmB1mZA8Dd9BzsKU2AfyJ87Kl+c5kDaP4IWZfqykVmTejQ8aBBDeA+wNSL01wtGAlA4XHRQUsHpg8VVq05cXj+dm7O7R0X2fs6LAggFV4j+1ztkIY5PEjD4VqsZN/3ALvFw8FK+KTgKW4Rx2nxVcnNmc76KRz7a8TZSuFoTLz2J7cfiFz2+1zYSH0S8lrTEv7QXX2Y/WXc3lPRlArH1vnTku2oa0rs5RWyc0PFDINjOXI08bk1rjh9/oA+z3NwOvGKQTCC+7P0YD4wtCDVnoAi+MSdgzac2M5TIKqS0hj9ZsO7/BblXhXV5Jnz1LLEIJMLErPXEgv1WertTFwtouSLplVSQb1T00zLYcyh4yuE9fAjpooDPVKcyfvj7yot4HLbc2KeJk/Y7qH6zuH3BY6qg3FXN6hnuU5jIdsfw0qEM5yFoIvpKVXQPvmvnH8H/SRTov51cc1uu5mTJE60TPwjJsHUUU4oBQteiI5kZmS4+AKHMa3y6F3AlGWo9PTv9VSIPdWh1SJ1mscGZ62fJTBlky0l0oyuiP3CGQiR5NF4OLa4mHLhxkXlMYgzaUc5LTvRAyid9SjqY1gnWuKSP3B1+DD9hE6jFfyrTCeiH3WrLX8FQJZVnVPP8AF1t3DTbrwijTeDp7aWXfHovAQMpQ/PhT+HmtuAoFpDB/alL/dXQHruz3T+nvWviOQsvk31rZy0uZtidPTkcUrHwZ/kpme3A+FNw/ipSd6auejNUTSx2Ana2yO4nGp6o3NBInWEvSZ3JMP6k+b0NvwZomRBcAx++8AQ5TZzDatkhqUVAU0JQiXJWqjwZbj/BAfWn43L+Z0DZD1yFQnLRU3E9WKf+RaZtvGe5QJ3Jg35mfdru7n+hx0Kh5m/IXk0+AaD/ls0TKoB9eFa06x9qIUQ8yWC9WEuTj5Zdin/Jhyz3fh5kLAes1U7kC0R+Mz3EUrnVBrvA//iDS0Lw2YAsZ5q2h4VXlkoRK3H9xGAxxIAmH8c6WUXzG7nCSGupHeZI0BJVbnB9teUtKQRDgdrSh8BxUyi0w4Bt9/vLobk+q1z7ePYZTTDFM7UPHuyohkrI4Z1vehFrtK5pGav3Lo+3Z83+m76oKPOL0NxURggw1DmnpT+pjo28QlxNiYu7ExXz+2l5TVmOlQ/qKP0RtaG46BJZL3dV/1kTla7Vzfwni/YDXO8VrWM3dzkV2SDYbLXCwLXLbmgwKtxqs+RJHXOuU6GVooCSKGWuJz2AU6iMI5SSKs2XwkWR8YPFCAUSH5ABUoQcb4bpZ44s5fcYri+eJzOh5eWCnaTiGMnEaSXJjstYDv+1yi5KVk86ilwTunk3GjQ8aBBHOA+wNZidMIsgB4lu4+/yPx2NFVmtFVe/nZ47l0hN/2DDEIGNSZWIVH3KGkD5pveL4gJZgxgoKKa0EnA5d4WIz0kJc4QZvgwwAWPf+ckwFUTFjbXSOHbUywL6blnAxpGDX0gM9V7Mu8FtlTCi7Eh2lshigXMTyVuy4+YnBalKSkItdsGle/CKeVA/1IWL78EwaCKD+b7ZuSNC/S7NGjvwBNpkcyKB7+2UKnx9pUgzy+9DH93/aXY3CZKGsNEvCaUDQCToun70NgJPfAtUCELoyyBPjFG7OsZwJBFQfUIS/IJ+fJboKrRWAM6qxLeR4ErqCJgqoG/bzYB/5sIQfnwQpKoJyOazlR2uvb9Sl4J8tw/zns2oCcFOoS8OaL+BcDSu9OLysusBQHEQGdwpzjkNIWS2Dm/Vd8qWEVAsj+f2Hcy4eZyyJ9isesh/dt9zaG0NNRXvqC9jEqCoahtCffAmoNzQUU5zpqudrU+3ToeUV1u3L7lXhulikqoZhYsu7UbfnsxrK2v+S6hKUT2/7pP+OMJXZ81vbDPmtdFz77rBlP+KTgjAsiHCDicYXw19q3gnNhCsTxhIZyX79dPQF6SvJgKBKFwiQout/USpjgwZLqaelaj5L3V63p2ZQqlVhvRCRDW4BS9h5qRYphq1H1WXJDQfSMfMnD4My9kbVolhWd6SDg/GVGmTYNZagjQdG0+52/qFVK28Nuu/83duN0zAj8zSZx0icWG4KWQifVMOxHWzC4UAR0B2SmCpBsNqa3qbnJrtRtbX+iLxpATD+zVVV4vznKFU3Ha0VpCwEA6LmaMIt7aJ8ou59LLNElW2Qd7jlzBJ3/2U5/okf7mzQIL6LCJEgIIus19eZpWu9RyHbYR4tnPSrcfLPbERoje/8Qsf0yJhLkdoQtoQXPYU+Sxvvhrv+4SRaF4iCW/ybpaZ/ZIwy9V9HhALVuYmjWe/Me6PHOsfD9OR5I1wF3XEy7OKOWBdHRlZAm+ZVsQn+/D5ed550F9FxxUXLsUhe8AEvcUj4+GCQo/b0MxnB0Xw9/+oySU1A+fTFKi4+Qq0nb9JeglgutvPItUkiUlS68635xNq33xij9dOqhnMRF5KbcB6O+BKZsfhx972Owd4wpo0BGJVeFWGoXWkRubVsQho6F+S9txT0uvwLc6MmTm6yKZLNGNuAdKQw8pWyZfX1nXGM9CcfThc/k2giJYU1i/bso+An2BUhiHlawOZNr2rB/BbbNbcJjsre3n2rGT8CpkGA17z/LQWCENkAQGFeDhjEfR0QCw1mjQ8aBBK+A+wM7clqkkGgyKJCQZEpjnlD/glDjenltS1OHx6IeutlrQWGWnHOXbVnZBboMSnbnvxjADj2D1gIVGmkwNuJ7gLbF7rNlBgpHaNGDqY4d22/ih1JUtEHNASmTFgxWTlZiY9EPiIctVYeRiuZQQWnUzSYp2/zZb/SaYmFGgilQkr9WrZeOe+15Lli+ec2Ih8iBaLMW0vaq3OT5WQGnWmqEHGFlTQKqXDkCMUJwFUV+YPqPH4OgN2WZmiP4RHQdtWyVyVemkhx0tUeciPFpBVFaTeDIBRMfLkU2trC/EQGsJ8hPaLAjxw6qUSjI6130UQNoADhwDXHNET3LZWode+sfF+XxBO6YRborc5tsYi7niPxKQudqacUAplTmuu9xDaUJ8IIq2c5+jAfidtoazc1oGKx4q15j/gYuevK+x3zyvOIdlEDdkDUT+97wDgjWfMN4/8jbxDgMdgVIHA9t+vGEjLYzKeJBB2KV/X45dNVMF66AGmO76rnrcaIjpgajyl2aL7mrSOBs0GQ4VrXEa9RYQ8glciq7ef8zyEficcVJ77hJ+KZayFbPiXYoM68oZin1EFxUaoCrP0IhIzMdUDFzUChtxhpfSte89xHnaJPOksNGHemWnpiwXtu1jokOfstoC5vWI9xnTmzGpqaSgoJBEH/gKJrDHG3UpbcfSLsYp7WUS/MESsUZLf/5td1OnkoYRsV6rneXtFIChNGD/W7fhQJm0whB4x99JxFakbFUmbSL0WnX6Ytd5Qq/w0ykAJbn/1nPA+HRbsyke3G1V+PKOFKAMwhTZolkGh4fcJsY1LIQyO5RvLcqgjo9J6DTMKNQBINQXNEGkO4EktSIuazeSPKtIodvvYXyixsFDbtHSs/kfNGoFXpeiyW6UNKlARoqNQCmiiWRdp+YRLlGCYIqQR9ZPWRvO1YWQ4AHEulLtN0rHfXudfuMxiKgT/AxnwN9JABfpgSTlWT88MPA7BNNCcOHFx+N3kYKutrkitTfWrc6UBSJpglg/y48QiLssCw0tyTtt2enWNsxkFBcUHeiW/gHFXz1wZu3h/da5ySjAgzd5JjLlEw9WEJijN65R+WzffzHWkwv9exIzuktKxjZoQXvk9tb+qwWBCbNHyyHR3iKIGISFEAk5zI5bxhd7zcvMHOHsI2gOzKvmiU++jUcR9W9Tf6Bhb+vRWqTPMpNu+fbSnGkSz47wYK7T4Hob2fiZQ2HRHA6j3358glNJJahUsKOrnumVnb+F4tAFNbINwuIr6zjhaqUDJiVwaVxVlZPspyjQ8aBBOuA+wND/hNPQBn8IPXE74KbJgX5pEPn5cm7M+hec+svXC0AZeaiantN3mYUxF2W3rEvjodFIH5jHto3bRuUA/dSCedLuXQ1/sAuHa1CEgloXNgGiQxsNZnx8kLAmAqTy7MrJtENBsbRhlZ8/MCb7pp92FUaVbTU7uiUF8wYSsIvw2Qi1GsgU12b8mxZGiyuZINDC5xrf68rWePUyhZddC1CrLIs51xcjHIKYTjbPZsQMO7dfoMDo3Q0iGWch99YUX6CAsTHVl/jmXKhDPEKUVVnRk6oVhvcqlTyCIpCMi+KN+U7o4yq1OF/Lbcj13wLuHFRORhqtI8sO/AutEmcBiC7ibQy6APoUqJUvBrlnyo51BxIAEhSR9sw2ZY0O7hEzRUmwbLuDaGNTJKJE+jWmAuOjCdY2lWxWrVm0IPU6P/IS1AbalHPaiB3/EdvZPAmf8GxTxYGZb0eBVdSWFsGRKyUGfC9DGNfRZGLWae+f8MuAYCRD5f3P93zNx2b8zkz7nSxL4+jkQ69D8M4TT09rZ9PE55rnGmfC0OGoLdmJY791H6sOr4e/27U9KiGdH87q3VmjSoPtpAL50ec792z1q97WiNIuNx0PXqyGgF4DOvgOmwD1vs1YQbS4/QUW/QyF0m6DCks0ffWatKuhEKm3KJk7ak2HWRx7uEMB83kJwcekBqcniAbf8qtizQbA5qCYxu8//sOhpSGIohfpzWVy7b1Ly/FpVgBLCPyqSzVbaW/rAVA/CGxA3xNEN5C3dEvDNGLSRfTRNXe3PW3cuMxmNd0voMHQ/Lege0bqLFu4vFd0Aj6gq6Gx9etOuYjqbjr8Ld3ZWauDa3XaBICufeTOqyim72LD4UXJjBGHPk0hKArYyDB9ZG00QfHZKDodTCVizYq4S4fCk/wKdWt2JaoxFRzE/1ElyZHA4r+J22CSA8Ya/NQ1TGoyZugEn931UMwDJftjd7uslhAbWHQXn1sNgTBpMFsfUu0E3ItOrfOW8IjS+bnDkNoIdoBVBzFYniu7a1p0ePf71shjN9d/kL/pSQ0+/T+NcfYnmUPdi96bXhvYzJm00RkxM56IArvyx/ZXITxT972CdYwZp0r+7tLpkQOBBqZbNJoGFpr1YhIFs/l3qhi1wnro3GkzD2MzBY45pnr7CsUfBsFXdkNm8iIMbfs0xanaz4bm1FgZ/hN+rGLJQGQlwrc7oGKsDgQQcD6MFJQ5JLHFJD73nbkH7KKdNq/yD3dgGpdNwwCyTfHCSD+fQQZwxPeXtTxYaSPxV1k9GhwbCCjQ8aBBSeA+wMa6U1LdQxCXxfm2qJmo8Fgpv3OEBCD9nrDtn8SIm6aLxD5jcyk4MbUEiqc1ClkDyelqt2Is83/dnxxq1eD0AA/uZGf65Kvf5+rTI/5Xma6OnmuX133gGG2MhlVk/uB6wBLV6IfsU7Xit+yi2+pjropGVaC/VlbVCfocwCPBxnmEUPUQ3EcE/5vwSI4eEScvnfNqrbu3hlc0Bd/sWqjeTHsaDxGgjkMievCZEUXuovj4OX05Baa/rcyIxJbEFw6yu20wV6ggsl9NbymdEMHuXUptxr86C7PnN/RWRJ3EHo8nTxnaHfZcnn777csLW18YwqUE94qNEe34L+/jloN+iAj3jVV7iflfr/PBk8v1cNja9CjGvpSKfKFSAzJPMOpK9u6uaIv1/etSWFdWxQS+Kfe6zbc/wPlNHOhy4uq4NTPUERSlyxktJ+NmyLDt1xR8D3FJRAjzc+67Dm+hMFR9n0uI+uvQWMBaWrbjEfrDH7rcB2DHGz6u7artdj7DwVfQ74QpqvEX0OsXbXQr5EqpjeWvcveo/i/ZRRQ2SFFXvi25Kae13YwysVdhBt3DVZoMCI8GVZDjKzlovJGLH8D6G8ytOBcSomIJAkh+Fq2hBXp4stuMUp1iSrtsWZp+ScIL53cQ4kAlrqTKVizeW1cFXLYYSpA5iHshLuT6CdwDAnpZwQcc9fJPEHgXef3gf+pc7KAzHcOBilkkTj/aCtN+6ShTq5KcWAGj8vS1TkiXmwJov2ui33cVkOryGWFf09U72Ml7DLrgU7ZvE4lmPNKbWBG/4gW/f66KC+RNBglY6wD4kmA7NYR2m0kBXJUlN76D8vS9+w1sHYGdL+FPspOe4wpQ/4RlFLYotSe7hTdoin3g/7pTTUbp4Tje+Q3IYmGgY8ais5HFbAHc0IHs5ikzFEMTjd+Fz8gljoDtzvh4hsyUpDV4WHP7gD9hYOySfuPm5bUOER6pVYtEJrvktrwV+7VHV0ajX3ZufW/JW08rNjSA8Gs9ipcLz52lslHqn7Xvoz/E9WfAPKvreZA8Is/kE/JjzhTUqueFUB5Sq8xNWS1+Y0RszgqDW8Ylg8lLP68swVgXipgE0ODHmPHtwvC7SiEYjcvmyXr0fZgDj+Dgjf23gghO07t1tZmCIRV8eazujLg9r9AEKtkH6IT5077N4CiXK86UpwLPFk/xVmGQ6ZF+CVq7G7Tnp/DU5PS0LJMtnY+CXPCf2/F7s1kKPO13XCY0hzanODqgMGeTVDKOBBcp4aqeEF/pvSsRbmH30VMRvSjQ8aBBWOA+wMctft6HAGeXQ5pWP1GADvcAKQ0n0mRpPMgcbyOFcjiuNnrBW48+67SZXixpwAKLPhzIIH6SogtHxv48rLGfuaCBc6Rys54/6bquepCjUw4Pj4PiQfE9Czf/tsLqAjXmOVHmdyAAAkCTaVZBBtmkvgmKMq9TJZdi/Kq8ZNRZb6Rx8SAivO0aReO65kVLees1aHrDi3EgseQaCqG99Xh2RdZBeU0Aa+j9ki4pg1dPS7V9Ar9Xu6hsIrJlcsTfjYH3Ckm59Ex/f+nZEdQ3YJFucs5lJS9CdVlKnsTn7A1Nu2NggbL5K2ubZ19bpOB5qDdbyAMFiFF33zPxgc0J6cS7LM1+PgORDeZ7xIF/wgHp6LuHAQZSOdCdISbOp1ZKvhEkB3EnhSSln0NTc9W4QPUaEIrHpOPPA+DvwSV9O+J9aIewEQ0F45eePX3z0+vwvKufGNahJilBYCbFyYXYDN3RGqruBWtcQd3eApZHlqng9KL5zaY2qK0sluJd/Bdankj9TiCWPbALgJ2tNfPIoWYm5rhwaw5cNCtDnx76VfKLGzYMzMNaIwA14AFM0inGRT/DvwiyJ/dJMV4YgrQDKit/eBQNnqrs5kKwLbQ+qgNS9Ce9XaB9JEYMZb+2s9158yN+vD/iLM1f4UbGKGHyATdZ9v9o75Rx5tf97uJyqEvmHzniXPkkkKfjgirtXHmwt1iley+17FcuRqcxS9CtPg1UbrAaikvzI79m7H+TekyTfnblX9JJoTgfp8Myc1PConPQuQXjmQqTVQ71aCyozYcLKV/Y+JYz/bkg4YGSGEFUNLMIRNy94FhXfsas4f9opmcI2h++8Pbqp+1NQOXrDJrhsxhUdLCYPOAAq1jz0gmYPp6WS4MlZTT1x/wrmTRcOx4lfqfibkHjoXmXTVeHecTy3LBljbMcX+AdRoGgH2U1l9hgbXaUsLikXNpzt/PqSP2jo3ZFX7Q4KwvNJ2QzSn+6LfQ+GXyLXi1Vm5dQtRg9T0IQeEnUrjezmY+lZOb4lIhE9eKdYjQmKqTkj99hMnGlWhkK1BI77pB270l1akvAWi9mscj4MUA2ZXlci6y9MpaLATJzXrsbwm/W7ewd9dxsW3CzqeoEZUbVeagIyWWJwy1Pzl1duogOm5HUHxQEgE21DeCIbZ6yvBA4fv2DigRwJ4WbvWAGffq5hMkIFMlKrgbp2iaX55XIv53DCHv9lp3SjUCbliYv0ckMDQMgyb+z3CscIsUKfte0QFvmu+/Hr7B6hqLDGd2PdoD9ef5uhnHop+jQ8aBBZ+A+wMidEnNJs7GeHHoEgPuIzdPRJUIJdeeSpHreGlB2QwGGkCiqcvQQgjvQ2Y84DzKM9RQq65jotdS2DPY6nS5FmPZsSjblXDL1RIhbCj8OJ02Q92GtG6jYpetAu2JsIHh7hiIlc70NVzzywUJ27j0Ph6PFPGlY0MvzjZ8uTbNq9ieffpS+tNvIImFNYsS+hroY+rwHL5AoS0KbUrby3037SnCiTcGt7cGRj9QnwSgXcfM8lIB7e4qDvi/OOCZy2Q1kxymNKki/7sqC3H3okh3xuifWPqMpHRXIhE30SXVCa1YSyFtA65GbM3JzgPceU90YaQNGb5Sq722LuK8rI0XjUMeYLWLuuCtCo5SZjag3c8RTS8LH3M1qGFyZuNjPSwnAbiTj6gOj2TxtaynLOmzcPq/TANWfgmJvwSMWDUTxIXK2kCLjfI00BLnaIp017k2mGPQHFN4PXwLpz8XYPqT3UxXeuLdxVoarZ9O12JT3VvgoAJkzMhKfFI8bivGnIeK+/UWYPM8rMiB/QfIFe8Bp2h9DGpDGFRygdwd3qaVG1wPMraCcDRR03EBFe9SvGgYbp0VFzg5f4TkWhZvwsxyMBU/BC0a5fOesK/7P+ZtxFPx5+8GoUPHpgbMyd5JEQJQt5KwD6cytvzPv6fI7L7RRzujVM9igekdEAMdhrCApuKp9AHvhm7LeIxu8MhjA44sv8wKqIHkogDJmqFtTWSMOxN/E4kqwlmkXrY6YNlHm3BvBeCYH6OOSUdP41reNtiSn/Eaq9Zga6YLSl9XmuC/57Nlvsk4DcE1280pGyvqPVd+c9duEhSFnlhDb6Hh0IG/Iw4b2JwSEJ7fmcbDXFzNzQESWpFhSGMJKYRJx3x5RH5qmZgPYaU1eRTvT9ntDTPJ2xOTGwev6HEvyvYt9WUEFohMMyfcjw4Ox0/JSrbEz/D/1h81dWicl7AUpQ9BaG8kCX+ONp72ehNR0rX0QhyU9LdQghzB+CSOwQt3Z7ayDfjlNHIEdo+hh3zqTMt0fhTghxmhC/AclNSDLlfvMWSbbeHrtA2s1zW3TMvoCyTTZDWCabnYt4mF8bMg75vBtWgiuBehK324EODfshsQSm3DKj7kbwcj0tm5hjDaVgHio2xfZHWKVELOm9qfyad+f9q4uvLrGRjrKr0jFkmGklMyomhO3HjJbzlqxl1fjIB0+I5uV+ptYLgLgJZ17wCjjlQy7Q1lFqiAam+LUBZDN7IoZsovvevcIZAvvPH82BLifFUvejN4PRqKJQt+0GdkhbZOV3ajQ8aBBduA+wNAdKcyZiHfC9w2oj9JFMw20oegJxEttFfSz55vReXPdvpNJHSN+j4mgQ8taBeOtLmFycRm+KiS4jqxREpuJoyZWUaRzMiIZRz6n+eQl2tvivXQttDt2WKXZrzgCGk5l6xAjhNARDq1IuHhOSyNfkKeWV6+FpnH10MxyHMJHUzSjFXalkcQcOY+1kfaKDOZ9zbOLGGEdaCyp3gc6/0TXcxNtnc,
"R7yZhCaVboqb/FoS0GRj4jxgh+8hkervc/XZ30C3aiX7lvujh4WXhWU6hOGhR7W2tMrvIpvkqPqrP6x2R80o4ZZrOe1Mz1et0akRxHOmhkDMf06ZY7nrlX9MvNC4czav4KfytFSb2GUNtuL845NDg8S4yiIEM22CCKxyEIWyPQczh8+rwBaLRGVLKpxhu99T+WOE/wTl1xl4HTEmwxkoJS73+7tJMFiSiHhZ0kSWxf34VV4ILziJ0BojrV303BlKpIP+5nGMlyjGTLsCLcZ0B6AW/opxnL1phgmi5Mp5mCVwUVydDLOs/0PUJkQ+Lg0YB5e8cllviu5rh9Xv9iNSBOhXO7IiAmCf8Am6jVyfpUtok97fv0SJiW8wWTIki/YosrzchqiHTK5dEKzN6ozqVmIYK8IIYf7gWgIZY+ewwq+BIHTRnQuHv9o4QV11acT7h5Kior9MseDOyjACiL2T8ZEZWfwi2enq58f5DzSWQqcs+AVGsDfX5kGJZCsgnKBpbyPXrdi1rDk0HtBjbHP5MqlnxqE+BMcQoDEGc/EXNP6jWvQs3okxXNw5P4x+3fEzuAesjkCw1lA35VOsvlynMGo3Wc8pcOeXDkzy9zw5npMoGH1upMNVKS4SuNrLQ/y7epdxH84uAEMh/GinKMoTjGVaT5Xkyovb+jcsqb9ANW0xofPbw19IYFWCe7GmYyufIbWnaEc9okLXDqgXTfIM0W3oElVtaqksqdL6xAzhCMJhNF8lb4Mx6QBcvY3oYBmEK1GCz7jW4MbZ5bvjuRabaNO+RDeGxwsqdQDw/aRP5G66qgMxwG0k6YuhljOXrwNmN3haV7rzEcTsuW3GtE6XtJ2v6WhydaceoB7lFHjtT+NVdXu3Jq1Xzo4Iy7TEVx/+u7v1wOeUxLYlnHpjJpYNW4Tai5UnCuk4Z+gYIl91gwRWGW3m2NM9R/EqrK4FQH594JgyDLzvARn/2YKnq+w+MGGJhy1cBQoQ5g1BQD9nPGLLeHZKyr30cRvZcNn789cmNLUy/2UNOhgwxFHOXwp8xQguatNzkrkbdtjLxWGjQ8aBBheA+wNQBQdj3Pe91EeE+ifJxNP6pEmCaYOgcUMq17dnRy4LhJDmedY4DErUprwrEKf2Kl6p5Riev3CSMlsIxf2Z7125cmEqrt5CXD5Em1R55KSlkMaBMFqqhh2DppjGkMvENBiyEjHD8PQjAXesrZGoGb/S24YNEn+Vbg/XekVheKoLUu01JkdEzTcS9caPFhhddUsWSmdCFcLHyFEC9MXIsHttcAdoxNXqMEoqlyd6+E4eohO6W5DujfianmrtB1Lrb4BWyJ57fLLWsl7jAc0Cjwefb9slHNhEeSgnbi/ettXD87vTub3HgCXo45pU7rF1/zqBW2LuBmDsgAPBmOzixymtvoj1xeX280fT7mfMISXJb5Ri6LorrgQCeJ5AvVTNMv1Wnu5+uHveKKgjws08h4JQBFjk9i4aj6bkc9xbMzFZRkPd3tSlUxFML7+lw70DWOGnnQeCWw6lXw5iFQaT4PuNsWOdaNZX9yCvjxn0Y8wA6ofQ8gKLqPr5fb4cWDKQrL2cQPCw6LKvfQGxiGlxWpH0PJJm/Tk669OCOtqJFvPekqDsxUvOcuxTNqBhthI8U+lx2e4iKpBGAA6sJQHTrJqKNrzNpd2S8A9eIu/UizSQvbUu0f1zyQTKgo0j3e6SpyeF4Qs9H6jgw7B0I3+5DOSkgHearTp16ZPKtS16Ead0ry5q2rsJ+vfOEGjXoTsunRfat03XRN/H5cZz5PbFSBypMIRqGjMb7l/gJGnBydY5rVbCdZhcWoxQdQeP//n7TCZ+zqPOSwRpH2KXs9wmj/cgsHhE2ZbtI6RrR4eW1qbwRM/YV+CRdCrh8Wm2LO13wqmOBqL1YWEKgJuX/zWfQQTbQIJvh0zIEatRmhKccXdTQxrUW2YhmKrPD+6WUUE835eBcCdkZlXyKvY3Du48S4SDPizoHKYpnqs85Kjn1ZdW/U30MVZ05FPVIQlhPLmKM6TvWFfsJmtN4fyI5qif8CsWTiu1E8X0A0iUfX5Ck0Ut7xHw46vNSdlcr6+UtmiS9L5ilw4DPmAgjSpwuZKUiB5pUXRn3OrG2uCD5TakN+aW+gG1ox2I9def5cUeJ28Pd8G+A5Lr8lhsxBK3OQZ8UcCgFfnz50NTJHXJ9s1QPns+ntAUP3630kBA6jn3sBEtlNfCNnParXeX5oicazZtW41/D1Uxm59qwt1nMrc9CCeizFFWjG2iytAt1bfMdQc1hHrt5y5WUqr6nQ6SvvzrstvZAl7OBhniLodr3To4rypSv5/H+O6clhop5fjgvu2WU4yjQ8aBBlOA+wNSS0dY9Gx+FyxKy2MlhwlEEfbq+B+vgVZ7SLsy+jfbmhPDKtKDFuX9mm4kHEZ5Zr+lqJdvQlyjyvV/bBTJYxCZIc19/X/5YffAvjPAA6jIXqWN1noO8H1QrwucgdRA/PxqhAMxe7qGnNWBMDH7N9cQMJOvraqVD0DHU26SIXVkA9IxLVz8GO0NBz2HHk4ExvJ6tu9loc0lc/DBYdD9Oe/q31EumHQYpzccJnTkjBhrpoxjkd4iVMq85n1KzrAb3otmP7qXO0WUFbGN2deqxxqQ2h2GFNe4xtb9o8fvPf9XmI8AcKVHglBrCrYQ93KpFWMWkAZ5sedwl8Hx1n9rfSAwhrFWshoBz6+qnRSZsM/4etHF/uSfdEmmzE/rp4r4mHtWxkYJgbOfTHHzDeftheqJnJ0Quu5XsYJ9k/wXxqdMm1F0DFrPqNAu8hmmppn0cYiN2lFs94b/M3P1XTkvtdGXnKwByfhwdDrWZ/LrzYGrMDI/k33bwKLLLnLvKf1vCnsAAWbN+Qq4jJPuTUbaIrXzm/EGbxsryUOOwkgFrXQX4NIYXnTytjs+ho5TZ0leeHc3Zi5vcdAXTYOVkUOOglJ1f6V+WFGcB8XSL8rWlyh9t+q8XL27w5A922k+1WYHeOtsBqWWxNxUqXTeqg/jVOd+UcOrJE+cAP94pSQk4/OhcLCZOXBwSP9qopnwz8H/U1/+enqTEipjl7T6t0F/FdiT50AZfpQJn9nkJBc7K7ZYIksoqxkCFQPRe5frx/ZNHsm0hP666WFYlZCdjrxOEVk1m9nUjSgVU/Gqn1pDLucdBWr/WcKh4gPbsEAidDFrrtvJl+L9MStKzpE1+kFznf+/QBf8ucVMXmXnc1R5Txr/tNkPyLp73RI2Z1GqSsoUq8sAl4xXFLeqBL1AeujAMq2HYGSPSS6/5YWYEB6/b4EuQ/RGTv2uPUy+R2BI1rTm1K7USLDfCmTrWawtOdiEZIiV98sm2LDshIjMfAqXz8pV36EIjoj5Lre/7DxG7UqPGGnxKsFKnUgOHYE4z3KmVocJJhTHveC/PyoV5db6D4Md2i7aMx+yv9hFcqaf3IoS+wNzKu+k1IjOZ4vi3orqakFPcFdBDVVNZUKf0/mhjeu20GdvxcuxrR8dq31yH2MT4EZwUfjFNupkX8YtiUtwOxwiiy/suFKDDXokIZ8LD3Gbf+B+pAyTqVNLzCMjy6Lj3JEKfM3Cu2DN8ymNbm5xcw2VNDHSmiLxoSLtKuSQndk25yzEKqhR4/f2nbgjcjUrvwijQ8aBBo+A+wNERcGylYW0HoHittwXMtuIADC4iz2qVhUxqp2BMHPhdUkWiRq2Szb7sIoCGeiAecrl1yPnSShfI5EfxZ0PqbC7tZ9yHSxmUGXkN4zyeB+xEzUTv+I+7fcpI489xG1xe+A9v/gTaH7UQfx7p9it7jihuFXPDV4yY+VmLx7/4ebV3FraVL3/4yBajmNRfXocyvzXCIu+lSZC/HWIdUw3i4lFb/bWvtUn0qmjBq8rZGbcGwR1PzasZps+cg4rSCKYvprDGv5SjHyIBOsQvXZ5Tzd6y5MdAhqlTiKSFB5Crb/OyMmCGdbMYIlYvtUfshRUOAGxyqvQnhMwWEXrjWrAcj0IxQtBi/0+yGviYuo81VzCmqg5R2NjV/KaotnFkBBMu+5I17Q98sNcjg82NIfyxKIoKcfYHXUSPoOiaJT1kabselI7/FYn27Mpx5YqoU3lR2H47nmsg49kCVeMQBI/4rIW/Vrj2EC+vLGhDo3JPT9879J/uXLRr6fCSxVcGJ1FM0Duxa3rhLbtxCKKw94VaKm5P+SjrZRhjgx3xAUjpVUOwHNFyKyARv8fspGBzTonjDb3ARwsyBTEwEOpTv8Jf+Y8MyjvN21+IG/kZk7/bMWFRKv24eSPSmfuWUIwGxvCGU2iyWUVbBR2ljKhRf+w46atlVeHwauR5nMtJdaGOdyBCpJI3SARULNX/1Nd5i/LG5JGemLFrIds9jF+8naQ+1dLLSeqVOrklA+76hufN0m148AAVAYrMNFZHSDbGf1zHaiahbkIyujVJR0PPgWLkOc/YG4fOqKCO28ZcZPUGssrk2wvKd3w0mLPeG8g7EHMD9sIjeisb+b5hF6aQ0i7NlQdUciIdA9W+NQjDos2NjUUhdGWIr7n9gJ5VTYn7gXqDQ2IUloEk5thnNkfoAV4MMbdU0lpK62XyQqW/efhxArL8RCDjkd1Wm9xC3Y9JGMFzSEZ6NQ1HC/Z1LSMq6Tw1D+NrNJY4fa2OxpRrdVl4nmFoZevxx592mNph+nRx+OxbpUF0Ph9ld0o6Fyi3hA89rkMhc4ISifiTfRhrCZIww0N7IujlM8v0jULbzY/fAR/Xp9ymE3lfKJZ4SEYyKMmr0EEJopVm13/b0rgEklaQoFWQ92Jj2x8lXlCCqgKjkVfi4qaSQX4g2Mr0eUkKYNEToduz1+pgrERFzcQEo7z2zEOVACPIy7wv+DDXugj6HcbL1/vfUUkK0qSZm+6k26BM5XEgUTChGcyl55h+vVPlX4ozeYTPnuBuh/uoaJCaqR6YPajRMaBBsyA+4P8EfwRRDgtM9reQDjI0Pc38i6cqUx7U2djxVKS9hFUT4rytPPG+UJtWeTMSFQ9zGMlOKKfK4mDCXuorB2akUXPdfxb9D9OEx4EgIRgXX/JsCArTuIULwXv4lWvKpAHy+C2OIzAD4NoAZircZBKyJ5WfQYiAsfKcMwaGvMw1ESGt7UplJQ4iC9SU8Kth4LxvemdM1nqewJxFzt2A/a/BH4zTM58dapYGqLnuy7Uu6k8/Q6d5EBAqkS/YcRuhVmCyJA3rIfSrMQcRlKNxpOVQLw4eN+W8C71vlXFJobAM8CdVow5mpGuK+0/+HQq4exMs8ZFBVlpCTk50ieViwyok9OGz9/Q9/W5MrpdYtjdwqceL7DTmbv3aQR9oToO98CBs3AP5EdvPP3q+ac4fpAefMKz/Gs3dOhlTk+K/ocDfaaJ7TDxJlk/K+mva4ejKJZ8TUpOan2mJiEir2HNPOBkKJq/UNEJRyJFmaJZLfSgkw5nI3GEoTbzuG+mqn13hJWSxKyO6Mfl+IwT4s3IMhVRBluDX5VvMqNn9dPbHYkCSY++N1QFT9zfpthk2vChlaDOvGnJIIokzgLWkpdjjAzD8dyAvg4uAq7XbQeWtQSxcGq/0bwHTsPf/NJAnVuLMhJhthUz6od1dJmKFQriEz8a2Q5ZA4nx+6bLHBs/qFTV/9B9zq86WNVKsQn6GrXb+RSLPjfYWfhPzBhqdwHWRfVrmCa1MbiZ84s1ptS+Dk3x6AlSWD0jN9c+dNDssHcjgivnJLBDODYHoj79Amncey6k48MWIEc14SHx5PmqfMuY8Y8BJ8gxKjWiq1TKDz2F2oqzOoaIM5rbvwVitulDG26Rd+1inGtxzH9qY9XGpCmZfYkFcGfkSmMyI5q+sCGHvlL4VWRk6vRNzyuceFllUzj9J/WC8+n6fFEyoEKNIgiWEHWFVphxisFrK9t+rKHK8l3cWxGWUBLWqGQtDgWOLFmeU4LtWk3et8lAfdQwpl5z7d0IU/G+cM6jHYNVpKbpZpcKq0LuaEVjdCcQWbds7qNMQJd1FVFyaoc+HIQCcD0wer/YQccjRcWZjHAEpfewpaeEd6S+UGxIeBVitnkMjuxSDb+Qr/6nEcX+reNonk8MaBeNVi69INyBkVqPv/H9fvf3v3NPi+//92MdPlkXgGW5rL8Rj1mISPkBaf1w7977ylibQnmoU37AmAacq3FAAAAAAAAAAAAAAAAAAAAAjvDugcQZZ/ZYKqE8uTqrk54jVVPcqUc74mg6UQSTcUBTX/NAuzEKwF/lK/lDBqwqOb+R7y2RmQ2MaBCdvJ1KJXWNAHv8e24aEzaeMFwOPgmO1wOLn0DHY7fGgyj3e4CowEEE4GHW+kvkhHRAyHBW4+XxjZ0o416dqIM/HB9iKG8m/eCJsPfzhCVhoY0Q3DkwYcok61q/Kc81/Us2/pvKfENqrv+cbdITYPeufIzwJGZG3x9x67GOViB7LmfrnjVDzkDRwhkSWSOVnVE+283mV9SFz4VovkHoZeUtL0EvkhBfQodAt9ASEGs/L78Wi7Yq+jlkltO+ALYxN/34gZn+pbona/z0HMKK25dkZNWmuh8BrhBS1Y0J4FwsL1DnU9dRUQsu4gmuo0QOgQcHgPuD/CL8EXiRjg6cdhCAxAxuSGeuWEf7rCrAEvMgicFMyBLqzELCAjBFxQdG/qJaDtBIEDKMPZRK4RSA4hqoNGaWWIl9iy3lnTtBv6L26gbk9sqpltW25q+C+psNzvTrGg4M2C1drBRfpljd6EgWqrhvDVw1yMlnK0FMKmICFc+4X6YKZFdo3EvgeWshwGz7JK6+P0TJe700b5G2t1o3glAGoVJ5xRX1m8xkNcq6v7kdDmlvzRX+Lf6C/oALB9u+WRc5kwvyoRLOdq0v0fObsfBr3FigWHuevqLgiy2kBtuEg4CE+pBpML4UDwhQf2AUOUefYlIiivd39OARUqFxIwslQVm89pmuD8WRNr/UO5l/zH/q+DJsYVwCZhPmaCEyiYypNxsxgR8CaeSyxL0vUd/2IQPlryW6kYHwFSfDgqC5NNC3kC3zYRkIQos4yRdtaebOrjpcsxQfPLW4G1med1IJfdY1LEO/OEOHO9ckEUBZ8n0mzLocxHuMDFZhP9W68qRTQ9uBdJwDDktEFt51ATyMeHwETzj6cYDQarM7STwJCrE8triAUNemQgHiOrQXfVJscAMSW9r1mOGHn0Qj1vhAI+LBAGwKBREYu1iojesMcUVpXVlieqKAVOLGeWBmUEaE5ClRZatIOup5QF2xMIHeFgYjsTgxnEcIXa6bO4IBGN4yT2DBX21i8IXMFXi4lJvX96HLdwSOGoplrfTRuh1MLvuzIcH8O9Qdw1zTZhodaWIorRO1Q3a0LzwU1D0ohTdIRPph3uJGavRrtLwO72MuFfjmIag/U/eTlMrhsuCgZVWTcGD4llbhqZdMHLRyDA5Zh+0s5XaRByxDAomCXzit1ovhTpr6aXucJHs5GeApQyqCK5lS39Psnwmvaw6FQab+wEW2lFtzhbW0vRj2OVNV9O8DDJNE94NJKjgIwn88N5RWmKm9r3uKgX8sWQJRtRAwkALnyp+WHl+YdP3ITD0J5DY31uwL4j48UMah5q/4Ijgm7LhKcE6m2yvyh60AWHjhclayG6AqFn9rB50GoeMNl2XyUviIb2znoka4S2WY34No0b/kaNgzdSLrUvi9CMgsloyPtv1/QN8TloCf4UHxMzj+1x1v5DczWqFo9l7kPbqzCmmXKcYWGtbQchN8+KiBD21DQGSG6DrpY7+33N1RNtk3LvbsGGf0HyNqxCoHV4jLH067yLzqqKF+RS/rXgkJPHEFobdWGXB8pTjk5sbShbk3TzfGRLbH+5kclJ8sn7MWCQ6PmD4IObncOVYfP4kQmtl43x6Fta1Wv+7yuy9/aizvb/wDwnrEGBNzT3aPj6SMAUgSkLhT+NM9HqmeYDvFZyXhoCi+jcblBu0COSg0rnJ3Dhp2KjmVo0O0gQdDgPuD/BH/DnZuAbFwyQJZQYaZAQMhve3E1GvsTsmemnPnRYx+q7k2pynIp/OkZdFXiIzT3s8aI6WJ/E5MusbFwtLAN8oArAEoFdqkqgZfIg5wKB0eSq2Q7FTm7BJvrBXNTYPAmVHg1d9I6rcD+0m57OeMYJa6k44P7C+KqH29eV+EaxeKDwL/A7NEhW10uekcrABRdmunX+GbzZTui0NxQWmi9zXbtLVx5zXExCwajY50mWi0IkEvYkaoWMfhiNX1gU9eP3yIQDbRyG9ZFXT3zjmk1VJpksuvYcvr6gig+jkCvIGAbfPKBtMpg9Ewz68C3DThw51d3xD/WS4XpPfAVVkAmIEPzfcBu6O4bhTOvWe/U192tqrMBdXN+XvPi2wIkn3m2HQfNshv18wbyOp55rnA7kf2Wz2CBeKOys9Luijv1NHXgvP9QDAQZjjRksYPitpC8/ygMJPLWXVTmGCX8aLZ37+xq6has7C0qb95AloXDumU3X8uQ4VzmyVI2BZYn+lVQDnGWd965MLVIOY1LMyv6jK62EW/5aWKvKMaKn2SiaLAYLmM9KzIh+IOvmIhhNB/Fxvlxq8rkNpCQi0d9H7vct6xMz1j7Eli+sGOc778l3yACAqYVOUpyS7Rjx6sg9HK3/j/+lxEu/RGDhRztvBPeSjEoVGxt2whIXX4K1QRwU5vFXV/i3zkD0Ff4NVN3YtfcDLvPRCg0VYJEOVcgSsKQe82DzgIJQvT84dg8ljX+SlPha0C4pgfOngFNWffS9/YGB+Y8kOV5uoXZ6a/nh33ex8vXwOdB+W9lPOFnMmkJpwO+tald7xrFQXPk9xlEeiEY7MfRds5Wk8wsXtRd/9sOPf+zqPepfPtcislytw3UnbMhHhvy3iyyAWE9NXCxJSCAu1O6hg9PwOUjXJJIAQ2xLWTQnvK9/m1m08kjTnha2B+MClFhAaBIuy0mNbMu4EmaQa1QFQunUzk5WwZBNIsNzOLfhurokNze1Gp35gNgz1xzgKLX15oJGv4QyEnm94CPPcYXtdKqDO8Rd1XAe9sKcc5m5qN7prnIXHELEYvfcZBncN/00ctaCHWU+F1YYSa4ahYHvzUZk3Cc+bUK+9rluYqpZ928kU2LHSXylcx04VTD8Rz0bKVYNNOzKuNUVf1AI5mCZ52t/yfGd1/f6GICHofywJOv5eGASqIOzZo5nz0KssWwdQl1M0MGfGm2X6p9ckt0vCXKyoII67Eypo8YRqgky76EBHo2J005OmEo0PggQd/gPuD/Av+C0A5OIAlUCQaRavU5CUgovRZElZhrtmD/6+/K7C16L9QTJsJzugZqWLrJjfxAexYEofxwdpTrvxo5nWBz6et14WSJ9Bpfumz3uJTNk/CCxvKPGUMDi7IgKriJO8GrINIAXAIgykjcfZAJAd0HJybBbZeblrSm4TCHXZEojza4AM3K2yOq6zs3hEa+t9u/ONyVgFrKA1+LaLwTp7DO3ftkAgNvbJhVTxVHHEPOLKc3rtoASdulf9J8J1mxQLWAL0UymTgEY62mACPPRcKnuS6t4K+0ED1u/4pL8g9y27540NnCMOMhxI4aMdla2D8QXDUtko6u/2zv4Qnfkh5E44R1HUGLteK1ZSMmFj71ibfWgDRFHpj6LEoKS3F/qeVK+xq4JcEjMkTvi5QUkAGC2j9VPn/sfAZt9U+l/oNaNVSPi9X0vBNHrbF4Crc+syJ+SUno6+3P7+GSTqmnBTYAQ22/VMh0hMT3t3jhqjqqM/UWFsfQb/EaEB+RAdyU6oBA6UCVUtLk2Mma19bSTfUUeWqlG277vN/qnDRG+xCZRDiRCL5KcINynvpvSAT0LdnHfZvtlUkVFpvodDHbAohXf9A8+rP4sYljcFen5yg1frydjzZ3o1D4NoU0KW9CXP16xSlayt5N4EiIQz0iNhFE/hHj4y9UC4QNhA/JXDFizrmLGQz+fP8/7Vt3eqVR339KuuwsxNTDGJs/bgicmQXsv2+jRR5vIeQXSqSAxlr0ZPQ/4Ha9CmSskwh5+YjhC9nKv1LrgRVuy51Enp5e0gKhIvYGPp7BnM+PXPfgW4YVPM8zSgWsiyDF6K20SGk4fHxhomKhd8vFMAeqF6qNZ39+DSObdGmTW/1/g8lPSHmCctJnFzvZv1uEnjLQxfiY0+31kDGCU9qk2LyEQYMBgijLsLHZput/HY6vnapOVMoeLssPn+n0VBIOE8reJdbxWlWwqfY7uIBwwZgLt2MrigHAopNvYoECGQFWes9dvrRSRyR39kEnuk+sfrDjSkIMEeLaXD7yStR627bZwWEheYn23g14mE/rnF13sAiZoKROXXNc3bc7/jxqVUAaeOlJbk5PDrs6qLObADk/HIiMRMKfj+ZTl1uvukXUXSBVP12XgMKctU8EdXdAFlK2ILPAAUvD1y1nRBduPBUyvJdaBlg4p/3umel8OwlAr1neOuK4chffpsBG5ENb2IB8OFgeNPDUGnvu9S7sFIl0In/rMd3Pg9B0fpALnv/8iZW/BBuewmpYB9hBfOyyYb3rQBbvU5GnIRJAvWGkNWWz4r2eA0dIbrkTjYwOAQDPWs=""",17,,,,,,,,,,,,,,,
,,,,,instructions,18,85156,0.0-7.0,q28b0s20m2jg90u,q28b0s20m2jg90u-2024-04-14-17-35-59,1135,,"[{""page_index"":0,""viewing_time"":1135}]",,,
,,,,,image-button-response,19,89661,0.0-8.0-0.0,q28b0s20m2jg90u,q28b0s20m2jg90u-2024-04-14-17-35-59,null,,,images/schemes/restaurant_scheme/restaurant_1.png,null,
,,,,,image-button-response,20,91193,0.0-8.0-1.0,q28b0s20m2jg90u,q28b0s20m2jg90u-2024-04-14-17-35-59,1531,,,images/schemes/restaurant_scheme/restaurant_1.png,0,
,,,,,image-button-response,21,93000,0.0-8.0-2.0,q28b0s20m2jg90u,q28b0s20m2jg90u-2024-04-14-17-35-59,null,,,[],null,
,,,,,image-button-response,22,97501,0.0-8.0-0.1,q28b0s20m2jg90u,q28b0s20m2jg90u-2024-04-14-17-35-59,null,,,images/schemes/restaurant_scheme/restaurant_2.png,null,
,,,,,image-button-response,23,98518,0.0-8.0-1.1,q28b0s20m2jg90u,q28b0s20m2jg90u-2024-04-14-17-35-59,1015,,,images/schemes/restaurant_scheme/restaurant_2.png,1,
,,,,,image-button-response,24,100337,0.0-8.0-2.1,q28b0s20m2jg90u,q28b0s20m2jg90u-2024-04-14-17-35-59,null,,,[],null,
,,,,,image-button-response,25,104838,0.0-8.0-0.2,q28b0s20m2jg90u,q28b0s20m2jg90u-2024-04-14-17-35-59,null,,,images/schemes/restaurant_scheme/restaurant_3.png,null,
,,,,,image-button-response,26,105780,0.0-8.0-1.2,q28b0s20m2jg90u,q28b0s20m2jg90u-2024-04-14-17-35-59,941,,,images/schemes/restaurant_scheme/restaurant_3.png,1,
,,,,,image-button-response,27,107597,0.0-8.0-2.2,q28b0s20m2jg90u,q28b0s20m2jg90u-2024-04-14-17-35-59,null,,,[],null,
,,,,,image-button-response,28,112132,0.0-8.0-0.3,q28b0s20m2jg90u,q28b0s20m2jg90u-2024-04-14-17-35-59,null,,,images/schemes/restaurant_scheme/restaurant_4.png,null,
,,,,,image-button-response,29,113092,0.0-8.0-1.3,q28b0s20m2jg90u,q28b0s20m2jg90u-2024-04-14-17-35-59,957,,,images/schemes/restaurant_scheme/restaurant_4.png,0,
,,,,,image-button-response,30,114898,0.0-8.0-2.3,q28b0s20m2jg90u,q28b0s20m2jg90u-2024-04-14-17-35-59,null,,,[],null,
,,,,,image-button-response,31,119413,0.0-8.0-0.4,q28b0s20m2jg90u,q28b0s20m2jg90u-2024-04-14-17-35-59,null,,,images/schemes/restaurant_scheme/restaurant_5.png,null,
,,,,,image-button-response,32,120974,0.0-8.0-1.4,q28b0s20m2jg90u,q28b0s20m2jg90u-2024-04-14-17-35-59,1553,,,images/schemes/restaurant_scheme/restaurant_5.png,0,
,,,,,image-button-response,33,122787,0.0-8.0-2.4,q28b0s20m2jg90u,q28b0s20m2jg90u-2024-04-14-17-35-59,null,,,[],null,
,,,,,image-button-response,34,127292,0.0-8.0-0.5,q28b0s20m2jg90u,q28b0s20m2jg90u-2024-04-14-17-35-59,null,,,images/schemes/restaurant_scheme/restaurant_6.png,null,
,,,,,image-button-response,35,128218,0.0-8.0-1.5,q28b0s20m2jg90u,q28b0s20m2jg90u-2024-04-14-17-35-59,924,,,images/schemes/restaurant_scheme/restaurant_6.png,1,
,,,,,image-button-response,36,130027,0.0-8.0-2.5,q28b0s20m2jg90u,q28b0s20m2jg90u-2024-04-14-17-35-59,null,,,[],null,
,,,,,image-button-response,37,134531,0.0-8.0-0.6,q28b0s20m2jg90u,q28b0s20m2jg90u-2024-04-14-17-35-59,null,,,images/schemes/restaurant_scheme/restaurant_7.png,null,
,,,,,image-button-response,38,135225,0.0-8.0-1.6,q28b0s20m2jg90u,q28b0s20m2jg90u-2024-04-14-17-35-59,693,,,images/schemes/restaurant_scheme/restaurant_7.png,1,
,,,,,image-button-response,39,137036,0.0-8.0-2.6,q28b0s20m2jg90u,q28b0s20m2jg90u-2024-04-14-17-35-59,null,,,[],null,
,,,,,image-button-response,40,141550,0.0-8.0-0.7,q28b0s20m2jg90u,q28b0s20m2jg90u-2024-04-14-17-35-59,null,,,images/schemes/restaurant_scheme/restaurant_8.png,null,
,,,,,image-button-response,41,142202,0.0-8.0-1.7,q28b0s20m2jg90u,q28b0s20m2jg90u-2024-04-14-17-35-59,651,,,images/schemes/restaurant_scheme/restaurant_8.png,0,
,,,,,image-button-response,42,144007,0.0-8.0-2.7,q28b0s20m2jg90u,q28b0s20m2jg90u-2024-04-14-17-35-59,null,,,[],null,
,,,,,image-button-response,43,148512,0.0-8.0-0.8,q28b0s20m2jg90u,q28b0s20m2jg90u-2024-04-14-17-35-59,null,,,images/schemes/restaurant_scheme/restaurant_9.png,null,
,,,,,image-button-response,44,149454,0.0-8.0-1.8,q28b0s20m2jg90u,q28b0s20m2jg90u-2024-04-14-17-35-59,940,,,images/schemes/restaurant_scheme/restaurant_9.png,0,
,,,,,image-button-response,45,151264,0.0-8.0-2.8,q28b0s20m2jg90u,q28b0s20m2jg90u-2024-04-14-17-35-59,null,,,[],null,
,,,,,image-button-response,46,155790,0.0-8.0-0.9,q28b0s20m2jg90u,q28b0s20m2jg90u-2024-04-14-17-35-59,null,,,images/schemes/restaurant_scheme/restaurant_10.png,null,
,,,,,image-button-response,47,156340,0.0-8.0-1.9,q28b0s20m2jg90u,q28b0s20m2jg90u-2024-04-14-17-35-59,545,,,images/schemes/restaurant_scheme/restaurant_10.png,0,
,,,,,image-button-response,48,158147,0.0-8.0-2.9,q28b0s20m2jg90u,q28b0s20m2jg90u-2024-04-14-17-35-59,null,,,[],null,
,,,,,html-audio-response,49,190970,0.0-9.0,q28b0s20m2jg90u,q28b0s20m2jg90u-2024-04-14-17-35-59,15943,,,"<span style=""color: red; font-size: 24px""> NOW RECORDING</span>
        <p>Please say out loud the list of the actions you saw. The actions can be said in any order.</p>",GkXfo59ChoEBQveBAULygQRC84EIQoKEd2VibUKHgQRChYECGFOAZwH/////////FUmpZpkq17GDD0JATYCGQ2hyb21lV0GGQ2hyb21lFlSua7+uvdeBAXPFh4QNrAHM4reDgQKGhkFfT1BVU2Oik09wdXNIZWFkAQEAAIC7AAAAAADhjbWERzuAAJ+BAWJkgSAfQ7Z1Af/////////ngQCjRBmBAACA+4P+MvwKfhrIdDxZtPWsmPFE6mMHCULv4pAXjFcboefo7OBRTtbFhL2457eCYn36UFzbQlxGOT1wE9L1cKW855lo9Ir436cKBXW1lgBRsvJnGEbknmmFUACeMJ6KmYSyAYb+XKIgNeOjAUUapyWE/deCRsLvW4b/v/whkrKv9fAxTNPFKzst7W65rVLnFDPSkhaqkTMCpBlddBh+ee1xz+YwlxI5elj3XuL0GEdFCTDZ+qLHqzR2N1oqkeCKO2j7X/PlUFndM2eKmwjW/C6j+yrIgvRjRM0ngAAAAAAAAACp41ndHAAAAbJbupRgWaE00IFRBvswfWMaMGid3VyU3GuOAVsk3cocRA19uGJGS+7tDhPScebnzKFF83710q10qM1k91RzTMSmiSUXufsv3uCX1KckIlvDXT2s5J817H0aaKKuWqcUltyYcB216P4Xtx0/ZeU+RxFFiBx84jyUg5qtI6p+RNaGu/bvCZIL4DZKJAOYZxPKexG1zEV2iVYpQeyIV5/vgwbR7uNWaGL54eUIidv22ZqlGXD6se6ufLhyi5uOWSQU5b7xu9328lvcOMHa74njdiVVTFY0d+XraPvE+9o5oAyEFAJKAhriaAZRNEMMPCil2/36ElRa3TcObQpHKkNL/PKHxRbSUyYoK1mHO9GZm2ioegD/Dav4OA4LbWTBQQ2AkBQAMlZZGexPQQhiGYXiyaHA8UBjuA7kZ6k5WOSWdlhE1xQRv+z57T+hA1jcUhjkJwTWuch23qARHdu5U+Yd1DvbkFQ9pW1o4alKm5GuJlD0IEtCAATxXfwyMDtTZmyUwhM8gNpVHyRlPaHjMh6HWjvUMyUGGTSfAnXm9wZJ2w/YjVer5woIq0AKxYp70KFpoSFKTSa+VHwemw2VC9sOqEMMCeWvqY32GovSxK2ANA4oETLJEBiElcF2T4Suc5HIfo0UKQRZyG09vKgVtB6zDE/S3e5jNvemJ7D727X7G2TDujhOQq+iuvc9wBYaOY2Q4H68z5d6NIkrLmxFw26oFsfUruSGSReY0azb0rNBDRNbioLc4kAoK9sJ+z8BMtA66t+DPY9wyHdb+LFVp6akvZPT42voZc0hGu5T4WcjcAxaIIEEtSlLrx8HfS0Kj23hZbrGZcuKfLQQuJ53IA6mSp1Zh8Km+AB7e3TJLEsr3+wgk3QoCtlnhh5LJNW4md4tUSWHYlS25BaD7yvajt8IPQQU2ujiVvK3jD1AXGnzYUyug/WZmZQs719X2T7U0wIdmU/lKK1gPYGTdL5heDmJk4lXN+nnPwfSKdSvl85gtunwgj1jODHMEs3CX/F2WH/y1Di+QX9mtz/1asqOBpL1ez/E7Hz4tE68XvqocdqQzpsza0VbzdMUlPUQPf1Zx6NDgIEAPID7g/4K/gpEPEwovOZO+npGqtDzu0vYQaaT8AGJrjXpbBP8I06knEbW7JGbKmbi+s8TQJlHCWEv98K5pcbKJCsc5FgR+SHkGWLZ1GJ7GBqkB1pTDMj1PglsqGB48kcS1wtx1q83vfr21RZYqq2zXjEw5+jbqKyXd3JK2NKrLF2BjydBMNM4URiTyQZyB+ZRt8By8NtfjS+RpSaMpp3D0VtCqDZxh5OwKwzZVsdJWnrKtrTclL5bhYSpS7wTkMx7C9/IyayqaZXuWTfegRLfqwTMXzsXrrGaaJ7OCOeXmTnep7fdGNdS9SPZvR/553nNaRDQUdWTOF8xJdRdAxDmTR0xWkWUbwm1H+P0rwZV2O8bquUPNmCriJMXauTJIeIEkQ35p9/e8I0inhWjPLtQhfLb06G4Cc8knfRaesKzJMIb+2tZLUFTHTuMuJZTGUh6w81ZSo+TxUgTAx3QqIcWjyb0bJAQTED+a3XRKYDoHNI92EY5jX1hm5jIm18NUy6wjhXE4nwF7xqKnFO3lIPfn4afEfH5tyYOup94dlRm3MPlXlkRZVm9mIpDbjy6EU6eUxhydWbVeeiTKc1YYWXCYm3hMDox9WfSV+bZH+lnj6PRqpIjFIDCavloMtacL01sohdemYKNNm5HZn1aDp9bA6i+0KqrMopfoG+PWu1wVHYfi4RwuQ9+3ZxGk2IjhGdBRlfwFGlPfVZ1CZGY5LR7JWrnZy3iazB6/AdS72NnZ+nC9kUuf2u6lI7+nAj1a6m4CGKWjfHw8O9iAi/KTFYmEkWffaRTEOP9nqQlFfxjRg29p5rN8kJS+3Q4rFduJZ65RSOaPLtOIlY0O7uA2yn0Pw2u3Od6S/OJ4+sQ65L6afKLguIwThrDlrE4VilmQVaZLWWEAX1MFTVteARaD3rr0sySHoBbMAa+3hhxOLup+6OWm8S/7UlOaav0MsNIvAXBuLEbp808PZzepeT5rJXDKSxkknQNEmjuzag+1xla00ceix4YRMXvSWFgDed/EvddodygWUj8umcochsGREWP7xoFE9aqVkWQt67s30/kRGOxpzI7n5VtsYqft3aoeIYQvFauX/YNb3rIENpnXLsBuXgRV07s31gX4zREgi4yF49BP/gCU88ZMHs9p6TBQagMItrvkTeY65L5peMog6fiL2I/GIlj6ceJNaV+WAfco0PFgQB4gPuD/w/8ETz3mJUSCP3XGCx9/zLqtRhQFFCDCTwBmk+sG4X85Tq58oFqG/91H1tT1lKQbAINuVmHVE2mlCJCzFFRYWqFdCsOINVRc1NDSL/e54dU4fMF8g2hBYdhe6NsUSlDASO18MulGWm9kB+zl5FZkXar+piBxrwkTVlP3l4GxNwIRZR5Ml/KRB57b61j0nfzr98R9eWTREAp7PauoUAWy4KsX43Q8XeGDyjQdtTrSPACBUVEUe5GoUx4qRmv6fouUH0AJsELhAOaxgZjGckGMDiMTIpgZCI2O63s4H/OIOBpVC0nTKRkSoZMT8bF77dByW6CaTzQkHMOSvK80BgMAmWuFIUS0HKqqNCxIOg7kSt7NJCWXiItrlQniSTxjnQdISMG3op+FxqMyzQESlI7NOnTdrWT4tnnL0c3Ey+6GD8pvoG/I4QlEWi0vMAF8ord/WaZSvIjqAasY1rbSek090BlyOzzTEe31gAoQU4fr8Jyb2U7j/Ze61lHZniCfDKiVU2EpHAneM/vli3M5NlrdRdae2DWTMTTk1oaLHURYc8sFJD7hUGm0O1QAFXP4eAncFDYIhjJg6HjrufPkwgRjpstHSLBmslVVxVwqrMUU/xnkY3hQSKne3caa7ySkHhc08xQuOyDyRB2ULlQTotlXVsnO76Dt1D2gyDNY7om+sp+F8e77bXCdlQ90jtzfOXSnjjzS6xFrb9gvpPK3NqmFUxSb0yT/OlgBi4s+uFEcwdYwoS47I/l/LegUUUZoZ3sN73sP+lfLIyH9dp9nQrbW4WloPH8rAy7pp3bnq0Ss5NRfs4ODaIQ0MxrsvNZ0nQpZgcphU/PtLBLqG0wrjcKQHUIMXM2I8YicT4MFIRX7k6XHHKnvpx+mwxIySSI5aTA6PofyEBQsRqh49xYxRWxrbpqiq12diWr4v4xTDHCC15B62Rx1EyuK0rVOKN3Y0uEPhHTLwdNoF7wdwj0W4BOZ3HsGxaBDpwcnD+FdEmCkTrNCnJmvIS5wcnR1xU/Sx9CC21/UmCO04TdYv49VkX6WDqwIn2fYZUW+f7urfHmw+84rEmoT7BBlUP0TWLi8rhmn+HHnaWttxbHON4ksv7/5piWqq1N9sui4DAoG/JPbmXlIQzenpybKJ4x4aMHvnp8MKl5C3T+OZJatJ50xDU5rXxULg6iSPIw4GMITX+tIewOrDMGH2kp64QcrdEvCX5RgPPli0/ziZz30trv7O1nSX7E/SyW494OVfVVxK9BmP4chWRSFG6yn7mYoWAcicijQ8aBALSA+wNQuH0IOpqeHr8DS+sD0NgHdeWCEqbkXt//a/XdGzARFq59MZYDlCpV1JsTyl3+LPkQDe/prVdcod/0zjdpIic5N1bHgEl97jO4R4D3X/SDsczPVF7rnLU8R4+/4UpxyNaLhewE8vYhIOJGHEEDK4bkq6yI+GanE6HT8FaanT4sThcPP8pKPYSXPCtDKAMqeUJ9/hukB//YKg0GraIBs22wro++Cc46MU10y12BuzAtHknb7tj6BqBKoY9qr8GlEeY0tShpyYhLzzZZ4NrFGoqETH8lE+LfzAvdueTTNnVAH4G2+UkFTpeLSq6oBOB6pY0l14iskh/otU7Sa1lYxU5koQiV68vVGUUZY0U6Wqi4KPk2QXJM/PqN074EOr7Y8KNclZYnGVvDxxXFBlMxLiwRrMwA0YIw2LICYm7nZOg31FAWnWcFN/+NKgi+VejMbpXs+6bwRSLgwM+82B56Y/bnYngGOD1pQR5mGUz4JHtEYXAYhjPS9TOEti4jmW1uI/RqLRsMCaDRDRnk/xBzTQTgP3/hPIZu/2aAcrVQsoeYQXNScHVUczgKu6jsifJnrC1bLTR0ss1HDct5q63qVpmpqGXvhTX6TYPkSh5jqyCrxvu0dTd1WZV/+ISn7G8w/H68XiMUDq89h4Q1nP7OYHlAoXFsH5J1sKzthamvkTu91OBfrLJMVr2VK/1X4VXts7roWzRnZDZGxkAdVMIrXsBbQfNW2ZJoAsU8hnNqVxnZx5f84ew2l6zcpuEZWQJpEu//gMP1Jes7rZdlkZmqQG3YGbtoi1M/N87KHMXCTwBmLg7MejBB8+JpjAWQ2vsxRdb7rF3KsicxMHtxYIWijtqHQ/jQel5KqelNBuEONn9Rt2l7s2IZMDBpWXulNeSLL5hSEMd2M3g/XPf+6y+HFePlEuv0VW8M6AYnV9Gv4g9zJLwxzbK5cZNnhXYwEIgqLNoFFj5aEqKj4dnTJB1mxIoaiJ4zWsXey5iFZT5mdUx4bA2AvUIY3b9O+H5nBsrItJxYdpb4ZMAftdy1BjV711OFGorbxvi0exiRoSZWPAvkKZSgMqdwwwJpD1yUG++bVz9pFAFRM7jybW8Dl3Uucz/2x+334rxhtU5wfMrbtNJ6eWFUZ/hh9sXDYH1KidFIy9I3uzUX5JiYbqlFhLUrXm679rs8ylTAO0emUGpiDMv3YuMy/2rmG/Co8w72kLUG6OmKUX10+v+o99NSFpyPJyxCfXOQGUkX31BnDhaQIbGW6Zqjf2RdSV8f37U4/S7OlXujQ8aBAPCA+wNAdY29hy4eJEBhf5mLEuj+u9Vlc+kL5mqgw+C4DU8wftJLx4xf2OvYgqUHfKmq9H4wCrU7ZHbADyV0g5Dp+tRH00IqSQOFtFomn+CoFRDpkIMqtya6LJCdjVzztEgtF8sN8b8DEE6lLWXsNL8+q5Nf8YdhO4bcykiFs0H+moppzX3ED+uIvwNwf4HttExhkGobKsBVyVKoZuncezIhCpuk1N/TSEh+MXxSzVa/CB7MCYqwmkkJDhcmeqdq6BWU+kp+rNlAHi7FGuioQPloETvJW+sF0zviNQpAsnLi6SVfb33nuRVPGu5ggBaa1LGbu2rP9t/poEUS+tBu3U1FrAYe6+r3J6DZ3Ye+VCyC1loZ3WOMZ3LEubSGPloTKT92K2hFteEHzr/59gGOG8/dorpp4XSKEDLH4aCPvsygcyEfZVGXSHHHt3eaK3jYphoc52eWKfxQs/Ka8fTU1fi1S3LMum5/EnZtSs9bFNJjbFyrhxunY+jqMhn+M1lX0NGKlmBIx5sbtPSzt/BAVlFg+TBQhz6/tb1S++hROT88xhv/7jsiMlr2XmEdLP9lFeKLRhC87nNbpJPIp/F9jbIvmjI7gIWkQQAV76V83ljI1pwZpXMRBdAil3D10QGjq1/gS7zOvRRdMK0Pwgai8GyyxajGOccCvDQHmfbAvFFqtNVe1A7Bg9AYtiJqNK/zL7Gh77mzBIXrP5kKBMpN8H4i0x/M3CQa2ARtZjkU2fJlVyGFAvrjH5obDsVnmx+B8oJV4ittfTcRn753ee+//xac7jRZ4YeJzCZHBW7cxQ1hXqLXdvZE7+gV0sA+7sX7H8QRLkZO+xV76yB7n/CVvfqMfSo2P2dUeQIBN4tq0pOhppDa9/x/lNwZbIzX6QuMbTFGX8UH2lnySuJD2A9juIWaHgyRFV1/VvRg/5mvc4uzYajdXS9rsK/gFvk20TxWFGlY9VRU/oTaMsinHaJ9Ni4aoK0o5E9KdswGIKlCM1aay5LBpIKnkydSQXzvGWC0ZMJzV5a9UBkKCnoxy0f8Ro8W234scbIYU5hlCGZqh7putaRj3DFtw5+/4JymdHeT/5A2YBPJPLruMfpK2klozUCL2dxmEl+oqTL2pH/14yorzZ03AFWwVuEfqYX1uvjkLEZ8VwizKH5UPPEakbNRw70SYvZIXq+im0P/fRmZb/GVBWjNYGs3umeCfPv4viYqqZmoGbN8z0fkjolsvZm5KpADj9H8K/AEefks3C71zgex1zUEZ+6ijFx0BzQhs8TeDRHVL4CjQ8aBASyA+wM/NXYR0Zn941ncOx6/bBXdcu9u2Wr26JudAYJYdnrkOwFlodVvFFpQHhSVS6Ops4aKp7WZKyuLfym0pVkfazaw33xxqw1QCNx+pRl6JqFsmRXZlRcmTNzABBHXeGcijoK+mEpszQ+zcV3D63iV0CC5WAUY/39KWUF5Af6OJCJV6nUAN0iK2OXzXxtBrJxyjGbt6MVBBvpnJLxNzhrFdVfgNwMTmvAND7NO53/9UMJPTFtCHgfF1+WKIjIq3vvhitUDGvmsizclegrjNur9sAxFfHyY2TIOnnFZ1PG9aY9eItWBxUgMP6VillkBXhNFIDlQ50Zu1h9IElUdL+qyiWciv4uDwnV4nY0gL6/3qo/Ear+qk9pI/6ERiHTMwPeqpVdKJZukPfkJs/NjCD2qnF73eyxU06zHhDS81VECeu7kJlOZCwrz3BqSfFZfu4E12ffQaA9PFpbW8aXd+dNXZ3UR8HdFEehb5EcTuqKzWYOq91aLBPsZzLD+g2yOi/CQ9xrsvUiCmi0YqXeBq/HaVs8/GHsURRd/AzJW6oQGHVe8UN4f9/fEGk2k8qZFpSg8T7wlPTnVU8w5ACJvn3U9TAetbJBhe2ZCBTp0P+QDuBPU0KJBtyaFH2vHjg1Cxt4Ad/YxTbWLb9aKICs5TqSX9oiimVcre1DrxBgRyE58e1yOpchN8W+ZtpdiXB0rB7QjfVkiR5Od3kyGbzHzxwVOVHZB6HXm0gQN9eSnMSRE0fCT8HWmBh6r2MfQInTzLkvv8fOuWw1G0XN2Pv8Qn1yh3YBOIEcF6q8445wO5eCtUooIzqQ2d/lox3L4UifjTh8sehVP8PXrj8WCwabltNXwSVXWP1cjvI/q83fMHcRljgwXslRyUc8EG3acJEG0hPXxhhZCEBdPTca8MCvyJXCznO5AOYMaanHuWWZPL/eQfHdCvn6Ms7fdRVTwJkb2NLatejRGmEjibZ6SKqPiV8pAyKEXhrmF31lMeILdhBoEgzQM/uXGn7P4wTrv1VxD9gdQO3MKN15q08BaR/uVgsqAZvih/QWs1kSrV+4dA/TTw5846TQsyJMb+02v8d2AtRddR3oWPxwaBhUow8rcoOUJo+5kfRI8GKYG6/N3m77qw0irlqy1p7GfAvzMe+5KkTAXqJxiWLPVSFmIfywxz3xJjQ6NFhtx9ZJhP7x+uuTxDMWgy4HxESOBwtn9m6agJu1AGbF6M27jbT7xxgEgVLwVW87B61XcyO3m15El/vOoce88TgtJawXqpL7HAeiAqpB2UHKjQ8aBAWiA+wNRxk4pBbhq2cLbZS3Iw57g9ujtx1zKFm4QANFLPUfrHScV9ibfVmnBkzAPYDg5Fkjm5IVIDOl6ay7l1NG1xuI4QlaY0E2x4Rq8YEbDS8X9Zaxh8pfaTCE859kziCWhODxKUJC8Ta7EkZ9lQkGplCBBg407WovK7yyxpZA0qQy+wJGsMtiZhZQdeXznqUwVifSACGflUNLM2IWNu6eJF7ICpbZjXTyfONIaJa7EjNna5PEaZve88ERCNca6HL6vyOO84dSF1YXCxNqrNpYz+G1hAXhpk2be4CYLbKit5jHly4xw9VeIxxE9kqS6jyAVfgZxMT962yAZSdSy+qaHVcq+oW4835F3W6BqbGoCCEQXTK1tYNtLAtk5U3kRqjQWfRzA2D2K5cMNp57aq1hHvttaALWrl+enIjPx1JIfZ7LzpVHJu954kFwkZWjFV/UzNrR+RhyV2tBrg9+Onrf90AcpyRaXr+ftOPCq3wr9olnsIR4UV5QE1Hi/RuNuVGaGC4X6YXx4pd5rASK6T6znIzQaSxCVVCwJK1sUggM/dEEEVlhuCZEEqKvONsIx14BlZ4MPwxdYxKQVhcCeeTm1/X5VzgSfbqS/1+8zpBhkvuIRExPmwv1No4WRvT5XMe2JtAzQ3fbChuUvHpiBx//QynAB/T82nYmufzjT5hcjlXcx8Lr7DWWDMdobkbzniO/z/btI05Ad3MJ+DdvfB6CLbCYXYiTuNUulRZ7sEISVLH2jvUsM2KRfI1hED6cIob3chq3FNScWdABIzTvMpLZ4PU7c8M4TN2fjinY11YS4Hr0UNkNc9XBPVarRfsXm67RHSLrSVjQPwRU1QgKN8qiJN+dmPzJQ3DVu12SWF4vCjdHZ2i+71cqykM2L4Wkc++VY2uboPTcJZl5IQmeSEG+eLfScv5R9BvCn3CrOG3x6Pr+jRN3FZT6Qhr/vQ6WeU9vIvfesaR7OaO0ionh4/pI6TjZV1qDU35x2X3wGkbgf9WtbJG9bLwJUsPlVm8xaMdVmNtfxe9myXJlBx236zXV7ap7eyFsehuOYz/mZIw1hMe7KhG50R2mJPG10pnKCYujK5JCV6NKtA72mh3qTKJh9Mwi0gSSY2EvQKKe+Q9jRfBrCsw2qe2ywB4pnXNCtzKMmuqwT07snGrJjov8tnCEUjIy86IiHdShsX1rT673wFIaT1rumQ4RJP05HrTNAv6doTZlg9zPjq6DW38w/25HRe0DsbXlyZXNBHv8yuoZ5mfu1qBxqGWiZmzllP6EWRihFMPWjQ8aBAaSA+wNSzRRr3A2lNRS3avz7vd5d3iNo338WBsa7JkRiqm1WNB/LUuzy0f2zaX+N/uMNXVGjIgsMUAwpTVhcfjRuNcDg3PdnQGkN5XBXgxYMRRgT0U4/y9Kw6Dwy46H9tqzfzBe4iH9QWUnUo8cce/kGwL0PTj6edYzypZq8Qd/zQsiv6rPNTn6buNBAfXbQdNUWqPfhmRY8BhRIHEr5w6DUYj9X3vCiHm/zJBrPuHtwuemqK7YxkhxzI15ZhIgTAb6fJi/ISV/uFRz87xloajWL5CZFYrC2eS96BI1FMzd44P/jum6XNXSt7Aj9kfTtGo8NqM/FkaMVmVtDdQMM3nvCQKrtLJA2k38BuymyZMdNMekEpwLBes8ivIUTA3HkQXqKl31/fMp9m6h7OkHqRdbBUL7HI+KL+6k6mTLF8ti0JFkmSlC/vFU7D/K/D9Wv4knbTT3l1xk7FFKJVTDynTlVoovfyp3do6ZORIIaS6lSH0mXZV4o8YAbewDNzYrp0z4LlI7Oy+c/qq26xKRIvd+zZNV9hvjLk0SnjJOCiLgj/cGFUKY9S/bQ2ulNpd269/2AU6VL2aQnGeqGnrnhZ//6w7EYrzNBdCj/9tERiuv26oBomZdoKQW3USb8DVbDl0tIPVbPw8u2dUvOBIGC6innYT7UcLoH46TVkxzAmsbDzqALa3h+Wf6j1WXEgwS3lLtCnnLa4QvuVPtn3iuvNw7syZYqUwEyBA4pBo5qT8WsCXRGpZfj+bry2UXCwtmgzeMbPpN9ZUfd4+EDiXOBN2ZCTjbOpcBBYe28OoybBOpiWgRgn+gvIyXCgn5SJ2u3kzXhllKtan/9Jk+vv+Chlm+VtmUvQ6C2NV7MtdED7JNgmhnpVrX/dnO8wKtzr1cl+rDoL8/w7WX16h+wJSExN2DxsF5EU5CXqssbVaWxLIIHSaz5r6/8HjGq38M2xjPiOFJSxxXqhrO/QH8x8Gp3QRkKcR/ISPTgFc76q3Kd0AW+pDLPn9TQZKg6QmebjsRc4/JXkrm+yw4VUpz635/CVnWBzfnTQW8fxsa3ZhuedNwbxpR2aVNU6reB/8nvv0w3puRpSLY3Fx229Y2VzRiVF8ft73ZCCJ5yd6/TA02ED0exx7hs0cwczDSkjTKWXdDkJWAJGimMmb4O9Z+hDEDVG9UKNsu03ZEZpc1Da/U0xlJ0B1gxhqCOswNSxLOkZ7Fy9Fi3QmjVgP0e7VaAJCVfmAEuql+CZIYSDttdFu+3j7JXb1ipoK3TfUjD80jHGCnUnNG7oVajQ8aBAeCA+wPG5Euj3WfkDYawAT0SzI7Z7g4ACzxwjAK7fyczbSdhcznZ3VXJxVYVJFBy20labsYtjlTY6akkS1QvRgeIdfrCfN+sp2eqg8W/2QIKHcbjr+bVZuqSAQl3feDuwC25aUatUi48W3EFk4vW1WGqcDuF1vc9jcoSblJtdK9EO08I42j7/yqD219a4ZslojhCG2kkP9UCkeWrLMTifAS6EwnWpfF/j0RyDG1bjxDBIUFlA25rNJXTydm5yCmGzxzhYz/HjlegO8KStv95B7JtDm2V9hNkgXNhvJsxRLoRhQeFSfT9G6IQiVY8nz32GjDidS5mY2+FSKFJon+y3L1m06ukxYdW7xJCR65R0ww8iYu0VWz98P4fQZcNmyxrCjc+pRJEe69l0Ewyu0By/LFC8NX3FktFNbG+D5XgkmxYV6PNEcUAZ77edlWeVWOT7fflgjGBfoJscItQ2kiu9QP3BS3Kui2CVGUIQQvYW7yUinXKcB5j0IiiWtvwG5luHiSPv2yKT6UKgb/UelXoCnb4Og3+K4xlYDcNP/3vnAw9wtcPMD3klCBUlcPYRvcBNVHv6XhV+MT2SLvezMojSVKCv6lRrWHIzYYlz4wOJGdkU/m/RJjDVBl3iVxvCXPbGgvs3r8DWIj0CKeZ/z8vNM+xPHWTSffyExysSw3IfO/o2JZE8A32QRYxTmL1yh/UZgZz3lwIrxsk1R+tFySMFyzGknvWw8hAE7/PzShKw+v2QxnQRSGHOwUaOcCVzWGrqNYTHhT/pJxqQCmjAMnBOjY3tJ1R7o4Uzvg8gQewYJ+mUxcLqpFZrLNJYuowNyFeHZTGqO2FKAN+QfTPk2sZsyWzpPUWQ6DL8kalzVcyotAkSoi2cc7S2hsPaLMmVH3mWhQZMsZBs0H0QAX/FE1xAXdyJGD2gAgL547Tn9ebwMUHtHYm4z8fpKwAgaK4HYDCChSOkfZ+x3EVq/Zf/DuVxKqRwU7GOAimliQjDo/21w9Cnqkh9ImyFPumWQROlISfxGXiHgP3cxfSqOsszGSDJg8Ziv5SRlatJJ7FnW7vagum9ZK7xHyVuBBhPPTa0CTQWOs/t5PQ9KvHzDr6HwKk6NKDpllavJuukvlsdevHN+xN4KMg+FIsX0shzIVu3zvj4OGVJCi7+Oyov6YdiPGwcN/pJYROAeSr48qSzeo41gSavqKHmERGarmZxgDbUC9RCops49oTep8+yv9vDZDCAcOotzTzMeLk0cdofyBEP4qTuH5DEVgwPiyrlChrKAkN4EdkNcujQ8aBAhyA+wM/ZqbUDfvLpUdzCtxgAGf0/YmDFb+YO0PeBBR579elrJG/4Hn8isbK4fRUMZoLGNJW7KFneZa2Gz/ePjv5P6OIHUZFDftZsYTlysH5xBF9isKTLK760QwFlKtNiMD1drTq1OSKamiP9/8A8IFxlcOFiSvBg8KiZ/UTNJc9rSc7OX23oxLd1OzSqu2IwZ1aBEvRf3v4K+QguLWUlJ3SI2k/QiiSBd0BdWwukBBwpsMxX6D2LBm63fa4PO+57S0FQDjI/7d6yzQLikPQqwJuwnyAYKcE081nVxTzXGSMmmnb0CcDk1kvL5v9E6xgeBV+2jWlgDMqzFGTJBuDtt1dFezcus9W7cnV4HQgUNZ6VOMdoyyBpoXoE4GRSMyk94b/CoDmvKP8RIHAH6OxrHqQ83tpq4AbR7OsocYFLN09WfyNqD1torbXJqH+DaVYexJqXzgby1Woa8mudp9HwRFtF4nKKCrSbt7DQwyD+DknhDya6OG/hh6xibeJIJlLFMA9oksKhPuloB6MsDX0Seg67BGL2a0/D4pqNuJioC+JGCcvVbWLnXEcYzVGtyjeL6fdIp6l6qGC47VCMEEPO7Lxa1rx9Bh/hqxvrYBGm2TVh74kO1mbauoRJ7gv5EkbM65AV5HBjnOW/mpTTKDiM+06rJfcZMCKZso0yxu4mQaD6TmbqWCuzMpXFCCyNGfGzTkDY0uI8bRa2F5nmO555OViPJkxLJy5MiopDwJ87ilyrW4lx3USUpPOPskEvCfxHbivm9YY61q1jhlCOFRZx860NvStczCHaOZDmGypX/dLhjEuEqah9/ce2LeC8zg4ywFxOURTlN9C97YE1kkrI2Zkey3JULmwQX4ARSZNY1HTp6tCxgkOOQGH2VTiIKchdTNVt8u3kwoSHhZpy375SE7bZCnmYyj1UeWWvMqDadrFnrBe7sl3C8XFFki+uPab8vYXvjLgNnuaFDEtAoFXeeAPflZ5oTLK4v/atlcuJimZ5NkKDeUAA7j5BSqAmG0g5V46ksgP6QuD+pMdsSdMpINjUkXXr0w2SPDEZr2uNKVowgbek36tz11bczTJ4R5fc9nazTVAAKPtgqD6o5GaX7zj8IrfeRDQfoEdlb9GiHbLFAUnSTW/QGp6Zxp/N2uG3cmAOQ8abZlm/+B7Dqr4e1+RsNCDhIi6IV5hVg1A4X4FdtBP93O2KzNVt2duaBtUdbYwK1wCdcPpmz7tFc00iCW325Qe69H1L7kL1bFcoJYXlvxoxNvXm33nWlrCsWytlpy4Q1+jQ8aBAliA+wNQr3WJIs6HJ/VxYaZjSRJU/bP1SGqdgMt8ebz1Ul82NF+VKB6xatJ0Z/+SjGctnQGwe3rszmcezbctknnkkXsgPUFMuuIyuhB+xn+v3FPVSkB2OPhMeF43KdxBoJ3fmkqxuP+lzeESdGhm8brY60UtwEjfdcdMctIrUx2iKkPa6uTVAcAuTpKjWypB0Vt730FmsdyDkMlLvtmhiN9/xaWXBDxwuuNwXW3qLQup0ATPoIXzUY0GOqdb5JXIMS1Zdg9pKD33lrgtNPC/GONyOKGOaSHRHBgAtNcSF8nyBQwMPUo2Ph85KA93ykhq3vNJ3virEyHKc3nD1VYs3N/zA22IEDUDEZPT8MDbfhKuBT/PWaLrSW/q1m52e6XwozFbbspUkouPcGP3IpC20dITl5mkO3LFpsRBG7Sf2Fnnfnq7pDzhy0noYUlkHaLRqDxKY/+WT/9dkEW1w/Nedq+YP6OFb+AouNB+0kwUOQv1DjD0b4B+CkvKa3UtacBUxFiU6ziAST/jlZbLub6t5xCKO50TremNUyPjMPaghFqPAjGeL26MAnyyYe5KExGDLPV7snSvhGipwFryVhTMadalJ+3Y4X5E7jjjnV/yGuDXhX6bJWF5Qf7A2/CkH/+os//061Qgb8o7RC0lwUnLz13mmJIxRpCTAKogyppuyZqul89Lq6qdUt2a4V/vtFPNZTCyO88febX3wg5jdibdestU6wo6eHz10ZPtoDBLCTPcRJfaYxhlA6VHp0c8UtRbs89HxKxw1jrUIBhL+ul0vxmlsyruhNqiEqTh3B+pavhLvPVrOy5V6Tir7dpUQC9MHfuNK3Jtg8kdb7gnUxHpNXUuKTZAUA+bBR95k04Ncnf3b1wAE/KtMm3IKFoY83hhFHrToY8ntNE8I2sdY5hnu7VXXRP/j6b0cWdxdKwTgjjeccguKWcBV6s476KKrjrF4CVp4ST2KIfobM937+ObGaJAhwPG8gSPXLSuhUc4z9bUCf2UfuMdtueI8nVpjeQoLL2rGWpcuFaFAMvaJQy0lP5A0ajYpkcBnxYv0LGbD8bcGWGgYX/MPOgpD09+5R0lyxKtleVR6u/DpJ6bGYCO8SPhp/TTZxfDGbU2HbcYUdOoeLsTeNOiDZcdMCfHdKSlLfklzodZpTKVfpLSaZnvEsb5otVU7V9ZrBexMhiu5yO4CR3aXLh7iGTJm1UMvvTVlq75QAlBWfQegCtNVDyXLOpUBl6rHV3kFvsQ7bJ3iknQNV/75afsavDmU0402zv0Sz1a+zSjQ8aBApSA+wNA6khmdl7q8ALbTjxb3jD5SSaQjF5oTXGy1o6+BR5Ag7AIYmlA2H08CCNo/kZpGce28s/SOl3jMW3/s8XgO3yR1nDanQgaueYHqpBTD/PIa67G0MlZ7yE+Zh3pNfh9LriuxQG2maY59D6ZKqlSIXdLpTZfsdsRvtj18iGe/ybim3H6cAcmfwsm5W6s+UAMYAEZRkQ6WwFxYjH3Crb08LO1dRGQ59UlXqKix0BhBdzPe2J+QThF6qqG8VyDzYOla0dwGZHrkrPlinuEZr8LiToTAjCzoX5g+ga+G+oQdYgEElKRwiFgVbn9EMpyCjaJFPXEgWmMJ7s/PPFwRcY+q0tZQcFE4XRmPEkW7oosrAwjOU+JMvUvxGhqXYLsWdlyoRvLS7R0vmHq8SOfYKfFhDtW4wPxb2xj/FG/3hhdKYf2W1MI0shlBoMDR943b21O/WihK7V/BeXZ5W584eUFkdbrcZvPEvuWjsscJ4mSzZ50xqTiBSCy/ZcXNQW2Vyb9Gs9SF9RxK/u4p2jVxTuOKQ6sg04qWRZhdX4TrARjH1jL2m1m+sze4hDU/N5b20MNFYvlpH+7BiskNbZhmQK0ExfPj/cBWUSBe84BVpfJcoDESioQrI6r/4ol93zDEw+w4r7j7N6pVkkyOoQCYNWamWMMEalX94nCCfiuURVaGnms7QCngFjU385PcjzX78XR6ToZZBF4WdrR3X/Bd5MQbZWmzqtoRmpG7iOJCjpGdTz26D2knN4L37zN2Bgg0Nfn04vvKSdbodtREEnFTaPFnpmHLWsmzM25CK18wc6qbsJITKHrSjlwb7dS7iU9XQpOVgi1YVFvWtrMss+gwCkFi0XeF2wZe1POejm1VgyY3HJI+mWF4Szk0qIWdLjsjEh98bkGu+j59+JuMzHZxE3K8/hhTgkYRZ3pcAbWXv0qkhNs9E5PFS7LfXsHmu6eu4qJkFIy9ZB49Ls+igDL+Dqe5Se6tCKowZA+VlmewvNCJfkr1ihT954aRqn4CTEJJSJyCtYZeEDjIgScRLuFIKQ60g2oG3crJCceCO4jFX7qoDTwWILCCf7r0Vbx4KeRxz4buj9WDe+0m9CpZenw6Xi1HHK5Q12OI5fgm53psIgq3icSW6036B7em+veuufCqJzUFmN3UZEICDskX+DV21V7uiS4XRChBy/ZvcQuvq/r+ctXj/aaxCxSQKMa+Rxp9h/O2m8L9dtROGhHi6l/Mw5BEbBXHIpsX551FSWunmULgwkAWmc1/GS2PgDDBvSQr4Db2UmjQ8aBAs+A+wM78oLjReDcdpMqJ8LMvoCfd/mKgE18DxiTs19SPUZbWvF1uvT31LtIOJk4dJqs5BiLOu4EICwGgwyMdXWUO57QuP4AlDEkbQzQzV4WjKKopFzP1yKDVxQumr5i+0d6xWMe5WS/JW/GfCHgjXmwlApdlpyH9wjb5NWZjK3W+wshS62LvIXaTOAYL7wjIMogvfqCY53M+bOJIuD8G2PNbFpWxJ0/TCH/EvEeoHjoLXzpNbrv/b6jistO4AKEIr5cH2Qo8ehrYmXOUmLs9a5xsyvGtQ9A5Z39skjS3sAmeUcjiL//6Fsxpyx/yw3uEcHZX61849q/BaPMce0BlA7tbb5L96LAffvZ0fPBXxMKfB+h9JmowrnXOoo8mCSGB3S42YYW8ytaf7Wg3MO76emANpHi0DzYRoIur7GeXvb8smragFEHx4IIO0GJofiBbBSE1smRlV2K1Jg1s+w+ELt7IpmN5nIKkHGrjQjkT6H+0ZbB7UDacK5jsMRyuPGtBULqzGPSKeyi8nt59lvUEGXK4uEMqbmWGecc8PY0CpckoTpX9cSZl6ic5UzFR8qkvmwwA5+StvDmZ/HSPXndX1mGFtIudW5GWZcq6Q1bN8tgFAVyV3s78j1lb7NKeHFqEgzVEcGht+kLEXXKsJz9JsIgEWwLenmEBz2vAP2Rdk4aOvthAB9Iz/3IJOTqel8UuWZ8bGAgYLNkf2pBmlhBQq83fv3/PWzlFENys1yinBlYWybdCxQNnr8z8F5iGTVtOQACIVVtepq2CdVIhE0Bi3W/txyRr4K1KeVgNiyWjbwELm418zrvUS/TDvlZ55h1xkPT4GDmxaoBrn20PeGjBu0AN6pbP0pnOow/XaouFtzdCoExwAVn48YEI+xKcXbUwQro/17asEHn/P8TIo45OHA5dzTtVCUF857u+10+RNqNER7saCWTuj7IBSP9+9f+pw4ZLmWgmgPCaVladCHiECN5l0O+7L3IKVygqyb1e/LaMTEC37GWVWLN/gCW/BmYHdx/lm3YA6YzX1fcLJqSM/RD78MFuLWMhVw4wQECJkXaErsEcqPRqt6vT/ypwE/InA7Wo9o477a1iKxIi13neGLIYh9MkgRXTyW4hfZT6c6Z6M3YWxl4AAW8ybtenGaBt4GQxXs/3gz6TKM7SV64BGgDI6Q5a/t5sUwSdojEwdoac1spL30XbX+ovU7cFaRH4mHpsOcZfWLBPdDSh25NM/itotKWYrcnPSmYQjwRHcIhj3zMFB8pHojSNmWwwbYaqD0T5sejQ8aBAwyA+wNP2FQweX6HZBbNf9PJ9UIhBewCR+S4qpx32VILUwzpEeIbByxYIqggeVqcrccPcR8P3li3MV54vCEd+PtMM5IkwmwJFiWLo9IVI7C6g+A12HPYmN9WqeUWBp+mOozI6/ooqvZFplwdIRkA6gS0x30GcJPw8InEFEFPiMdK+CozXTu4UT0OiM6EppC3H+cs6/LjplCmKNfBLleTZhJ8HBkzqr82HJK5C/KeT9ZP+j6jMz/e94yUkhRqEoyO7q4yLxvbGCpAnK1RMWsUxacAVt+rrMa05TTGsDTVm3OV+wwifh363yLi6+kFh7+TERxXcSUr6NA8dMlF9nyuPIWN2mmNvwhU3VDOv8kTQziV67MwJC0M1W8VEWzeZo3TAJNMbExaBsiLpUQExCVgYJN9BfmfoolZc6WPDrK9gnMiltS5/0Dp3dqZB3OfEG7KX3N8Q/QWtRIadeBzcQkXuzdl2ZDUK4XuFW98sCQ/zryPPxv/4yw1DrhRoDhHFhpXgkLqCv8oZTPqFwCivr93VH7NEyLby3iHuirUBMUe4yjvJk1Qv1XtpUv5ul9s1ywok4JcOdH+qYpr5Q1qxM4xs/EKIew31tEGzVzMQxcot3PCJ8UC2dJ11iXS/phJKT+pvxOvisc07NqqTCH8NHC9FcQ0kNTQHFukLvp8aNy+rvFGyymo0Y3v1oSTTBwKS+10lq2AlWzaJZb+5W39SxBf87bOSPjbuztwUdAPL06Ln4ZhTsa/8hE0/qjwduaLqAWP0g4vbHwz/U4KPsP21pNvlPwe4Brt/TIsiqJc8H8+HxUQnz3q/Tb15wz+EYnwUCCnqUgFRgLf4ZC9aHbkQ9LUV05NpMOxGlFMXWpNF93Q0XApn1t9+kzd+mzapEOPk+6bddLbC5Sip2K8Pxvd1iz/zHwsOoUHwEy+lcVPCm5JWPF66k4w6zWyXXljWyxApn4IcvRzcPKFvbYevZiuV+Eea6PwqbH8tMGXenhEpkqUVaim0papOA38V53vwKx5DVBL9hXCUVmrOdixfCF82MYJewvtK16nKiKwd6HeVhglOh28EQz1cC6vN8rTF3onpPHLUAThGiNoVepOFQ3NBKm5nKxC8eMjO8wIw7JK6nVNd0mKkQe/jvFLa//mTcz7/Z+OYjdV75qarxd7tC18SILo48ncNlweJ5sjUc1wTNDQbf2D9pMJfbwBYZAxUDjcepuEqTDEihusWg22NFRhRdNPdBhoqsKBRQP6oxwvNT4UNLcad6Oe/+ecfVRZyjJJz70ekbrgO9KjQ8aBA0iA+wNSbdxVQWBJP4wSxe79QFC2hzGZbJQyZGTqXyOVqRC7zFmsnIM3ZW02du2TGnbtIPutCizgMNL1puZGivPYfCWKMQDYJQBJZaFl5XPRPuPsf0KWTenQEwlw3zR3VO81RlQ48p3adPjP/omecUPzYwppsrrI2Pmg1fXh8izwOAZQbYVJX+m9Ufb9JhqPNpPPaq8+aTXBkzNWSVUGEuKZxDfocQ5tox+eOZXhLJB7BAqM6gGtTOgWQ9/2KANAKu9IMr43f4uNlTj8aozUz+5yusTV9fGdixbNktxPYZJeGBjyuXqE9SrHJgKbyF1zczmgC0TNXG2rBGtp2GV+FSKjWVOab80M4MpSw9nkh72jdwTT8OTRa8bbncrZj6eIyQd4nmSXNM99qUK4JKprcpKA6rxmtzknNi+eJMYRtTxgWErenEQvNYb1C6qpRlP7sxv1YLXShtguItyjvTljjiY0HCovpV1EzhDoaXaLR5d7U/tNIW0jwsYBhq6hh1Iel9TclFdu4TfFfMGp8UzjRK7X21+TdBZT8yB2LCyBNw7HaydG4tY78uPZRtcuJPRiosPMSBHkr2dLjXoyQ4d+ahtuUSGZu+KHdXxtT1GbfXnj9ktRjQzzzWBwDTclNBXjilZkrvCSEmIh00Tqklr2HrdKYOKssug9oIiNcvFPTKa1KlMbkL1rcOG/C7hYLPtNlQdm13RjptKxI33eXySQvxnxdHQjAyaM09abhCWuhrbA0vsitRzies2+6okKAVT2ta98N2Cqh8y6OHh3fdW+PVqfthO35EOCjiCV7UeDAZgilMSNbgumYJjVETDacFy7uJMHcinAzwqU4/ewtLOR5jf+p2rjUcZs0xodS2NlxNwi+iLierkbB7XuCWBko462pcpLNxyCbUSVzgWjVN25Cizw+8MXgiR9u/XvKM+qs7KAiugfonotO0SGaifAc6n+vHJ7fTuBpFVwcQ6Va8iPJlrAIQOQ5LtqqRPMH+sQr4XotfWDACeilt9ujngB00s+/gAAVaSW87IKb4BLxrXy7dol+odEIva+oKFUNvsXVyeEl/nn68F6Sz4yWytTWhwHpuaU1gVQ5Fh3t22kF+6mOXDD1EjdSl/WegWlDNrQAPoy3NnHBAQvr4qBb9GyPN76E4HMAclYF9GDX6EgJf7eYRArnk7iG+lGa81Pdb7vbVdsLwN8wQM7I2PgGgb8PHUcLs9i1Ewy/QxqmEaFGFcxoGFTgwLlv+hQgrlrP4ThLJ8gW+NsyHdhytMfZ5ex3pY9cwri9/SjQ8aBA4SA+wND+ww8SiuLcIiW71gf9FgT6kfbDjW7MudkPN1mfAeLBcZz7snVfpRqXrSJFIw6uv++3TDQI3DT/reNaZmTRQU7R/4dGpNzmM+37fFED/7FQY24Ys0+hV9ILff0vk6oriuNd0lg0b+VIgUDZD2jFev6KwA705XAONeFGLh3xT+FmustIzT+6h3oIyE1bze71RzWwDCVrWnK7yguwwDMGuZFIvrd5qhYWXfc/9h9AevoN043iTiWkqbb1bWcRpTGpb6N3RRrYE7N4A1ZpwXpe2QAaHWOEZedCQKbRsRgR+KLWhcBFcX8eFRv7YGGmC8DzJ6PmDNn+bdEphQ6HX28oKHpLtbKIb1F+My50QaQLYLfrUl6Q8JEX7y4A9lirHa32blyW29uxJlR1QH/1aSy34D7FkrnoZgFxcTV1dT5yXOXuU+uxjei692yEc0/c40P3LXdurMb2HUc5irwuuc8gW5AKEyr4IlJehhGMXsEebfYuNnxGLH4I/WbbEbXf7ccwmW4Hba6giMhmFm/kb01ec1mJhrs/T6GAL1Bt6l7L8+q3S+7RTzuV02BQl466zCtt6gyzYuDVt1eyvuk00zNJHSJDpzHOKy23LHr6r+mnV/dJSqk3ywcSj6pDxIw9/x5OrKDmREaH8gsnOM0eSJZ7Jzw1IgScHCQCODpFea5J8xEVWZNr4zF1BVOF2kKh2cgSqs3qd+Y53+pigc3Dple6V3w2IiZtqCtZx7Obj30FmZtCm/CLIzMl9ZgLfOxYozlzB2b9aErBcrF1vkKG8rtEUJmaRtxG4iy2fkyUlZDnIIltxl9E0pKhrpXilww6efxK7YHfCvGvoOiwe/FHa6TZ0g9UL/2UonjiLHNmk4u3djglqHUGQDiswoTuQ6N9Mp5jFThzRZItqs0FmQ7vuRPfRf5ks+2HMMm+Dw0Shs26QBcSheevMAMjzm4MuTcRh1uTEwa5OMS4x+tsdVqAPgQXtSsBRGv2zu9l3Wh/zdFCXEZb7yOdxlVqR9rCxyhLJTspQgnzvLXoDQ1ad+Epmm0rpYP99qk9xHLmYy1fAx8gRo3VDpQWBCcVj4+s97om2Y5o3S9rKCZ1yTfQiycBty+RgG8sUPA3m4SYxkyy+2/5l6cPzY9rDH+0biT9G7gmmsez3cuIHNo+2lRX657NV51HOzC9+C2Nj0rXHY/UQkXMrr7f1kQKQgHnpW5YuVgubTYqwPJDMV5JRE4QICqm416ZUb9knER3OaZ33pOl7Uj+LJLJ6Votl6Ow9/F46orgmyaMZ+jQ8aBA8CA+wM/qZUbMbS0fOLPUUF8O+k7Q/09FSVLnc+qErVjz0bShznRkzebXwQjamSqKEkSTX3utx4pItOxFB+3Mbr7Y/hcbJIcrxsThGcy6u7wobB5hxFIQtAecTVKqfooUIY8+4FoIpg0ihSF92+VBxYxA60myUDG6x8/saG/GEIZLymQxBcPFGZxzakPHcSHg9z/z49cCUc3Nonf3nuCIu9XWrynmgOoeUBKvDtvPa1u1oMbOKcWwS6NHrJ0Pw20IXStkfLI/FnkWzjadrBzW25H3nXsTMAKi8IUrKLfbdkkeB6T35ZpyQ1lvYId26EeBUjeSkALBl9m75amCS5onmMe7WpMLl5YUStXSISlrYWi2U5gwvMwCBpyiAmYOBF28z2lZrh1jEuFgAG0+ZYYeZp6jwlgHyuRrUUh8Z2tWvBe1Z0/QwNmfhyIl9dnIdUckLLwBQYskXZj9SOHWumEu2UZp1G2aJ+RttPN7Aa5uCvXCg4Z4th+FGqeciGADeDoslV7sqEUHezNF0DBcTS1d2rrxAUEIgEKMya7gz0QQTIBGe8KyCOJnUGp0otfJhwxgaBmC3b3/n2aEfUgj26SLTEdhR91W9feizv2gO+k6Pa7hzqtCPR7V2ec7jmgQF0iv5m/FK6EllAPgCo9+xziJN6jKEpulp4gve8H1RSHF93DfikmZUqQmwioRNLTC7i53LEuJtwwZjvFRXroAxuqLqM0DZpmVo6efh8HUHJCUoR4pxMt/I2/QymP55K5KH8FA5TVt7I2XdDN253Fk/wh+K8mVVkjFISW0tUP0uKTbb7udhApDSe0F1c4eNX1F+58TYH6nSh55Jy1Dnb5zEj4l4r0wPBtgSFceS3zFY4FkxVsUeB0meC0y5RRl5xh/CBe6EGwIIVkZ3vMoXlkMSGSBxUhViKh30kAbNHp6amqgBkXVaEZjQnuesP6jQdjZIPnVAsmbVTbynpIZMhc84qrqQ5y4tZwb/uzR1JxVL3XqEx7ff+r9Pt7e9s+IarFB2Z/X3olFV3Ij8QvChRxckz1mhKJRBvd4wF1GgZG4LSHLlaTUqwWurMNtf6Qf/X1yks1Kpf3dM/SjNNHg/c/645eG5JgOa94AiUhOiqZjoiZB00sXT45FxVy5gPxjB0ybJs0BA/qD6ixMf/arxprMfiQWwexeDZKnJz3hn7XPdnPH+X0LQKCKtHlyb1BLgr6DSxrKmQrloIijRM2BQZ/E2DenNxfa292gmKvDCI5B9bHUWkr5PHz/F8eHq8N1rKLwUchYf5TXqKjQ8aBA/yA+wMZGtWEns/nJQGBO1zcA14Cj0SvryO9CXEGEIPdm8o+yz7aDFAhTN59yxAtM7uYO+6V5mAHvxJJcy/pUQkaEZIlFSusOapwaYqtsjzdYBdRN7e5HRKpMhurcymXSaPkuqQwVwi+AoXuUhI8eogeNCygyNX1TVJ9pGKMdXpJCIdzMmaRf4PAaymcv/QvgNlSqaw0jsp1mIiXiY3GgBfKWou9qrvoqGVOWwwTcxT7Ui0FwJcWCRvqNyqPa7nK0YIdvSFw8CyLbpGJMWT0ibaHEJWzFwrxF3NKpYtWa0ffHapKRyvfA1aCUy1iznv9uCNYPN5jmaDQVsPQ1ZnnRB7m/FVHeKTRpWPvQRTpcqd8mrsEKAD3cdsJxOryNEOM9QLTtNWoYYP8bea5Dn15Dtjd1DFvEP1lwNE5NmcZJh/OQfrazUDznfn0crgaNtb8AS19FcJ9JHQrfgqZQ4lttdRVaI4x+tb57+QKjnWexhhby1iCLHzo5yuwvarQ/NDi4N4fLT2CznfU5JauEz0AcQNsbE5YdqZOQR+z6/CmW8VR8SA9BMiNZF8ClcsBDrJYN4cVheTMTR8ANM5C1sppR8AmQLK2OlNuYleMks/DK3jNJlpTBwtvYNm9DWNI0RDzW8Tk2+MA84yiIXuO6gl48M5gE/IokxsjiQ0Po8hPZzxA1j2KZzjhbuTfaEttHZu6Xzw+lzvYLsOjH9IQk1cy7kW7soX5XG5Fa6r7Q8dRWUt1HqZjYoo/EZ9lJ53sNYiFIfUWz/ktE7eTeJsXIG0rToUFDDqXg57XM2jWygjm/kvhF2yXnkdsZqPb3iG4HsC7t+/2Pn0GGtsKSf27Wjgdtx0V4PhXP4gP8eMmrfDRjrmMVUxPdVFSVL4jE5Kn/iD+Sg7EuPpL3BdU91E4p6yKwUOJ8Fo32jPn0rFguICFsVFF41VvxvoE/tdQaUWwI+bPXGwlUzKGioAGTD1KgN+ebRVi4YgEidl7b0IvQiC5arM01xmWXJOyYfsdqWU44lctmwCKwTgTvz4LBa6YVqoOSesPc3OyetbvsF+WCSqNIJEY5yhlV+CeYCjVJeCwktsmG4mjZLjNEI6Rx6TWrX71a3cHYHfROomdUJ8Wzxecur+Jn9WASD0WOzBG5PHfZs0M8+nA8fHCxzpMHkW0t+KzU/KC5365w7UPRgcnKzMm3QbazjvTiVJiFUzZgJAsMlTGbpR9hNo0KQQ+eOVdhcrhYu/XzR7jhpVlAg6KMsxdByBIHNWikrx0BCO29gRGFLkRTLULKCWjQ8aBBDiA+wM/4Rkj/uPthlzDcjoFuloVmMxZcPvg7NtXS3inZWvGNlgO9rKopC5PmcdLs8lHsqX6XoHogQbtlzFuFAc3TTq3LGdCy/l5h2gfrr+LdIlc21mv2WpVBFO+pS+q0Gz5JLNcX2iiEDiU2AauptML6B4Mml4zphniUojXG3WDab/8LuPyUulidSBEAEpsbRFhiVfoT0I/gWahipfJ+SU/I9B7JUhwBUgQeG7w7DdX7utmsBJbPyF9ZpfNo+9zmA8Cfxz7qnIBkSRbt4cDRVsW52rr2tii1+53Q9wlbK/7OnwPs1HgFyS5fcrCxnMjkGaQwXXhiOLSDamYIkejbRug5DJCwZGAp6X/gqGVvu8PezrDWpLDk41NarH0XuUSHr/kwAtHNIWpr0KddgF98NFbMqo5tMS2N+HzZcdFDB08haj8UlnYK0du1sdjY3XbLtCJzbza1naBdqV+7i4ClUprLR2Eg2mAKQpjVEiRur5lmF6uIZJtm0QQ7BqAOWhsGSc4dStnvJzcrmGHqSNHSXACo4fxZl2QWHowkmPRoUi3BT2Bm5gBr2l52GfrMiVvSHkoW+9qYHXnU5dlvNxuapcWhg8veIW5R34KDr2ZXaUMezbJYyVJETuIZFng9n/rH2hKsgXSJnjmyLuDajmozP0RqwTfI66XklbwfC9erv/Ic9+LEL5i4YD4CZxOX//IL+9yc0CSomOSK9bqTlLo+OP5jmifMhfe3VAB7jgHTvEa0VSOV746qRkLQN3QwRt1dSVO65hFcqxsuHLOb0z5WIw+tuE/avYQ/znyl9iugXxPeTgmP/qX/P5eEvw7HXiR63uJ5GkoDEsXj5SRw6GFL/lOqCCXRC82Gauf4wKa6vxX3KUOnoFg1TytmyIE91p7H85e92JJMxlTHXUmrs0KeUQ4TGLrbKnG/BBL3F/FxJCspziSIpDet8WuYFUMybTzgZuOsyNR79MseD74lSs6PX+KNUijfLfXiisVDd8wceZFqriuolsqTP9dBZB1qAWvqUsgvCSaKzC46ARuJNYukmX0oBvQ4wxNczrD+USNco0j7Hyycq2s4fPUVqOTvFkmWytBujUYKAQY8eQ2IHiJKLHGXhR8CRlXSgKjBaczRmb1pScsmVtJ0RpRcGYC+gtDZ8dKQAT1DSROtJklfwO4THjuIcz0EBahbmaM/dyvO98AjYzGuR17FwHh+DLGiMRsTqkiaAW/40gUySzbM+34gWLOM4NRWr2Sv/lEmZfYsBERxl90wESf7tC5sXhEIOEsH9zbaBOjQ8aBBHSA+wNARSOj6Qv7WeRlbTGQFLr3fdLSfsZD8dVdc5230D/gF6bG7Hd3ksRxTlg/jWuwCYQ2XcaQ0TdahT3he0bLzfH+QljqvfZggIpnHH0htVtMARlHQFCsC1x3haJyBFUldn4PQ+d0oefrwo7O1ulveJ3lBbhD54aFAXBYhNqcD01Z5Y+2MC5XqPuuE3scKddNZPRKooy9ZnRhZvHnRzouMVe/Bq+Re+zT5rLmhGYTPLlG91x8D1KvsPaHmvuE8caXtuPEFn0s8FKg/mqCMiejXlhOYxcFLk+asttmwLnX6TmIs1yBmEhH7CvF91UC2ugxqDV86OR58ztarIrDvayVz6jKh2BD3TNUUWnQKsL6FiXlIKrZ2GOFwoeGZCz7ebTE5c1cnDwutJDOHGWABhsUkTyndaEe/tfGesb3COo7OPSO5D86b9MeFH4gnRgVGjRGe/JllgHQlwlvAMJVJGQgEjMkPi4eVR8MqtVyz8Qpwi/kS/e4Y1dqcYlKdZOAkpw7g5lC51UI014GP97eHFQYjnTQWlLSrXd5GMyj4pvRmYAl1fFFVbOGQY6Y4tqLds8EcTcElUy69z48J5b0LkBQE5VnM0NPyW6Fq8BveZcJQo+kQwOUVFtYiPUfQUcLvTYqY9Oniib2p5JhU4gQooVHoVbmZquGLdlhw5liTLi51HTDbxAA4F49q1uUXSDC7G7lJ8oPapYron3Ziv6Deel9ovyG9Y/glCVW/VLdI+bFtiG+L4+Sd2eXeeZ1L586n8li5e0EZXRPDfNn7hRNBpmoniN6fExbFl/2EMZQhnixsW+7HOIr3rFEcveNZ7TXnhZ9TONzsum9vQ5pt+CF+U8/EGLiQIVh9W1KaSMhlw3TeK4Lzi7tdBK9obV5cQR09vTs6ErU11Vm8oy7VOnWoZFfay9yFHSugKJjuVuN0tpRvWeBK3o9viXxJDdNDbwWl6hcXc5QEqxJCrt7hq46wiKR7GrPFUGtYQzmXDHlFtlt9sKIJZvn0PNoF15xr33kQqrjuD14Y+54xGxsUPA70X8NB9P8vT0kZ2Lsoi4/a3s1zQGCyaHXQTu8qfOUNrC6WYP8V1Jtw8SSbewpes5k4+T4FL6IV8odZ4NwrKd/0fjlNbzwRMmbt6o3u426nnQU37upTRIoLzPx14k80jsCv1viWCWtkaItvqtphyVE86JSCkhF3QxQqPGCbH7lywY8goi2tWGDiJpA9lNKVAy97270JuXtOSX/+/I+A1eb95QEmaKALsR9HlDCSBVVFO/mlqJwcVyjQ8aBBLCA+wNAPmMlpyBQdp1mkARS3VKhd7p9sj4MkylPYi073asgT2wv97Ao7xWGiz7/6eyhTmyZN19/JGSTI8rIpGxwniD4R/UwNW1bjWr36UbH7KSG5Evax4zk2G8HsbGBQJzaljPGbRlJlfdH2O0hJ7hMg/23tOaf5AElMmKtmpak8Lv0K45fd16sJv1O/hA9buFTfQxcN8z2w9QIXVfHTb3NQcphNPakDvueo3P99iHCheHYYAQobZZSIddm3kFahHJUpjLRRFHH+IOSW089pE+Q7kqBnF9AzCiPSrt9Jf2j0dHCN36AJg+7BeZlHlKotpJ2Wtzya8Ffq3ZZUiBqEzcfbgdWZ9GWkLWeZMyp/InTwNWbJfv2ijGV+di1lyq8375iiWGVQ0uHsk6KTd8AYDWHnh6v/N9edLnLyakFL30QxnRvbU+nrZQWq3PgFuPdMRQVHtmT++gDyC4RgI+2W9fUzTjRooDcfELM+tM1Dl3lGEf9k8rx/2fmu24ciucMFXuYx5HvkqXRpM0tJzX3CXTx3vwN/LJb8A/lO9H5xRdkNf8XBASrL3Eu7cNhxUM5i44DRqk+VAqLWMyphFttj8zckd1V/CO3UkB5IOJVvasrMejJ0hrX9GbC5i3WPk7aU22eI2YWzfAmT6NJnt8zUw/9pI0c/xrcqQ6HyAKDYYKuWYF6TqCuLQ71vbRiqcZwCQLI20yLeZ/FCzKP+dOm07nMZECZsfWDIweGd71wquipvmdBpvIOq+RG7LnKfxz1BJpkeCT75WbBfvXq2SJk2kLbWdOIKYMQqVmWYsN97Dg5VOFM0TqnEKfvoBjvJq4/JzFZmv0ZKVft2KCUYvKtPTfTVj2hRDSmu9HQklutnjDIhdpt0bVrJomL2u/t6DkwsFut98aOQfOCsxSPFm8DrTXaPKzuca7q+uSq0zudhShMuubj9nnJPLjLe43Z364aw1tKt7p86SiHQwMG7vYqZi3plR30mJ1Q/2L1HPBU2rx2ftEGXcbSZc+psDXTgstHTBAhLw3ahHpY6JyilPsI6aDO2N+W9f/3tyq+he7IuGw6Z0GNmVVStC5R95ElC+FakWFizKrf2kWVATJ8x0eaKv2sPqU+y5BhD0FzXvK/69Vfy9TyfF+uKtdo7RLtCcTqsw7sVqBj6Bx5xL0WVD/J8HI+Li9LYPApDYeitIncMCYeQnSECGG9mb5Ub3kBl8X9bOJr7u1Hx3BDVgZcNlXoh29T0KN2gnuN9MhEFh5CdciTWoF36dt5IH0p9SW2FBMT+hBZKPmjRJGBBOyA+4P9L/4PcrJNAmfszAS8gewJHTt+6lgo74TAfHevTmxAYu6vZws0tQg3QQdVSWA7gm6AA8VZjWOvRxtYH4T4yEO/lmwxjJr479Vl8CZGL/ckVyedlAcVM8p48PBJjCpDusGg4e6wEbHuYdD3KbFQjKLOJURgoar79vpMPumPGWZKI52nDAWD/OKJ4lL4l34GibtdPOx4vYp0wXC3zo1Uk6xDq2/eZDSy9IHvdJoM4fSR/vEHBe3nF+aFxXwUImRswgVKw/ht6ih42zqKstDRgRg+prxG0SMZERWKfoH++DR6kDfAHMM+RGYEqlR6rkC/Ew1qjLKofQA2NX6d+YxmIi7sSB9xFPR0pmyvVHPByOWCZyNZR1yL6tb7R/Nz2NzDE4RUF1GExoham8A00IllVsOCyloHM72aKzQ45TvVQLco3ncqRj5eckDQJ1o4VxPoybTNN19lAQu3v+PJrKmsEEmP0HOdkKrrhQgJLz3DiTlJqwoYwj0lrxJM/bEcgvK54hptTO1khW4uosJGJ2mIsIp7/LGsrk38GX6skKUO2wMKEptV+B6R9x3EieQaoARk/00w03PNzwPyfy5n+4wfRCWShQkHnhjCYCLkKIaSh8KvI3JLov7rwt0d05TDzjj4LafAXqNnZsM/vNQAHVihQOBw0pYVr5b6eCnGjoYUADNxYxEWiyT2t241Vmbgu/i1Cnv4uFacK0WBB6xY05wPGLZdIv2pEnSMji8F4C/bTQcqL+0yxpBsEiaApHN6O4/fm7OvnHAuSDHWqDCMwVBgd+zABouB/4tXczh9pk+E2antSrEVxJ8Aqo1ZEQmxjm8O/DEYoO6z4za3lN7RRPr0kDO9WuAIeM4XzjLAvRKLEr95Atet5LGWbya0jY8pHp2LbBSV/OD5SSKLZkNwb5gHZxfuuj0FvUN5f2qTSnDltyUUGZJhyn5L4VXL70B2Ywa9BpjMLqdtJE4+XdN+smj2Xxbrp/+TKAqlYBeQ87QYZZA0ZMEd3XELi+J/U5LGHJN0zLwh2/lISx19/pPJNgAuivcqDFWA2YhF1527oUMBARMJSHsurnE8YdmaVVNReH41HkZcZReXQBh2+cQriHJwfx1vtfdq/majHo/5JJrxvwlsj01VMFVP3jj9i+c3I1110SePV0KuOWFyFdnLf0CQMteCPTwIrvOCXeCWM9+Cem2+DHBBMoTxegFuCiKRZYRBQiWxK0EEoZFNCH2fGe3fo+FuPDXyRyVbpDUa5cD/LDSvXm1vANpMxef9q8ys/1dpJqexg+5Vr/TkGWGKU/Qg8osn9nyC+TXMtw1FXkIYioG5i1IczZSkvGWiI4P/pRCAdmsB4ke391dIjW7etmykDr6JgsrIl0j6m+f9n9Xs0TsiXyF1iY65aFgcMJjBJQjO1npVYhxzOBRjh1SsO9MIzEAbpyxN6DmqmujK17Ql63TIBLnVoyHYfvqooOqyUGfF51eVepdiz6GiY3S/SvjJZV3GC/f9O5zMPQplroNrk5A1KYIuzEYW7uT98TTppvZAky5AM0CSy+VRwHU8qKNEQ4EFKID7g/wS/S7C9kRUlK69/s+1LXuuoM3EAZIPZi13M6wa8Wthnl6ZhAgS1aeEIz3yNtvzpDfXtCi87HXujCmgNg+1BVsedwycLWgXCxkNufsdbg9xd1NsdRv1UL+mjdspC6/WjAGKsUOlk50cCZanc/VuK8kQcYnu5xcyfQLVVditAd8Wl/xaznO8aRiVGV2i/6UKTahIyqs1Q7ZaJShi3aytxxGQ5h0bntBAWCNj/mTSI6oRNHPjzgIyl1nRlCIJyqdyVY2RhmrdozZos49ItXEwOeDH2hD/BW0/RAF/JHbkRc7LeWMo37bGqsoGcAA6WR8xaGk7Bs4Rmi1dn8FBL2VmkDi3Yw2/DZMc7oI6KCd4j6Riwtb4fqTRc8Ib4HIpsqIQyBeVyTlMElYMDgYeuBR2wxylnMCi1LUExbdYoFR749y1dBKrejvdClHKVV5FHRCv7AE4Z5+82xQlGr49lDIL25pNwH4UhpeS1GevCxqtnLMkePDeRIk+U07zGmYeuw4hgWI6kr5HLH22dyhu558y9KMnvVZTJ3lir5LSNsLg0zn29yeIsqKx/Vw78kGyBc1bdCc66xprpNTLUs9sIUtE0ststU3QvQBjpxHbePGge5a4G+vkFz5tVCTH0wJ04fbaCVxOf2sLih9F+z9mPcBdf2lyigNCmrr2FBLqfWwFqsHGD5ax3S7Q4MU/Whu+bai8vtT2EKX9ry3BPFfxiMeqhdz46QXtisFxtzH1a/6cOSUiwoXjUSMdH8drlz5qZWOGVozzIatIQSuoVJ0WgqidtDnMtEt7jZgenU65oisr8wzjHf+ZpliuVifkir9+0TQQFutTtwALDml1kFKRBaTTwtwWCAF/33jj165nDHUDsYYPxVCyZymqDI9/7Dk2xat6vX3feGt99R1TRt1ozVJDEkb+NPn4NDzAApSNlEbpkW8wyvIYEDjNvze718B3AU0gFCnAykZoXGiyjsmg95mKa/wf492i9Z58NonlX4UM+V6Ov/LdHT9Hy4c/WwT+T8o9/n/PjG9SU0p973w610MO47oRibVdaD7PtQ+NN9QxdDtK9GpaGk/rFfM3ItZPhsp5CWoLNNQHl/YHvni7H/qWoq2RqZj0CSi4ixnhuKWI+AsSZ1CKCjdHOAVnWgQLXxbnmGmDAaVHASKOJa7lvK+3H1Oi8Z0Qo0ATxfU2COhBhShCBeoCSolbNQ+R+XrDjeAwq9jmWPxJyFnnyL/hVmWa0X3m8UgTqFVytuOxtXn+MeYuH4ReKP2YfNZpSyES7UYic4Uf7/+OwxZ+kN9SqGv+h6dSO9Sm6NrIE6esKiFP6lQ8TC8z2iVYX4dA8jFs7noRlVoVS9/lbQbBT83KaMkEOhZ4c17ntYgYVI2f0jk/xf64oFGE0gTb+AtD4CLfWETOxkBqR+OOvOGJtTEFctkAzCdxhWkWgfMG0zg9WmDOo0PGgQVjgPsDyijGRrpb8D0+tLCzWTvWoX5D3zI4JPBSsRZS8yIl5bmKQqI2LxfLQ34MJIcwkATv0s6G/Ulw841gjLKDXyd6Qzpsb5qdjwIU6NRJbkz+KkXI6Lb+dyPouAXAs3fHpkP+nw3zjiDKFonMuUhweXN/CqzocTqQQDJr7DP6b9vE2w/gXUbu+cZb0msiFA/yj/36ef8kxGDb2+M6B//KMuHW6c4YrnCifuuJbPEHorX+PbsyS1RYG9pG0VTpIjfg5VCtBvdW4x7tFbWh17n4oxDsI7kK5jxTq0yDA90so79nkgt+XGTue5Od4NWFHKITaJ/uEAEI2jN3F8oinzI2gf22qnFp3soXlr3D56KcQChrluiVpLpT8zee2cms8xzxupX8AgQ6QMN3FoG4LxtMsxb2HRnBaz9ZT8Q3yJVpV61TodvDAIzaVQ6LQLryMEzbnTzOMBNB1T/oBL5Q7+vRhGUr/+us0wb782bEYdiH5gJbF7MdvLrvLHn3/83PCire6QrGb+O1vxmrkuVJNytxZXajGsPNavvUYZYzCxnpSxePF0dlqanWPOPc0MjwsknkIqJkMrTZrRleRgGBN5eBc0zy3jOIOEsSNJpdhrTxNLuWVlUm7MQ92A6Mftb8ORYvJQADw20ycoHq/a1KLEuInQImUT6ddpB2QlGnNi3QJOeJPX5hnvWVfgUa9ROF4TerhluZo0oXMrj2bpvR9ee/FlvqoCmqmLlZOmZQkMcJkqZ3ZU4HZqBOdbVlTbJs91fX6gL5VVE16L5HsQawOGYCFVuYYs0s9G6JI4YQyW/7TL+lEWs1AyO50Xl5MR9ep7Ii8Di+BGd+0NnXDnpUYqaqOYYGU8peydWOeo8g4vdi2+JTt2hAFpRqVTjpL8NoQW19Pp4/B8LvyDZHgb7+UFuwAiOfRHkz4VGiT5IJR50HVUsxxYx+UgXj1pXv5MSD1cvO8ZwsDEQEz5pqiM4l40Tn8LgH6IDSX37KPqGZPcsmDfzurbJwYg4OH2r4Ywwx+hC04XK/mCVCWStBc9dqFqgr0DWTVxCFdNdpj7Fq4pk6svM+xYeQY6v193URK597Ng3z2c8gva4fOL2BvkpsdhaFW15PumzQ5T0ImlgOIG0ULeuuwD5FY8fkGxW3wLsYh4cjyIebPUibTQFPQp5xRNvc7dQutUBvvHhKl4NBAcKkXtqnashMvd1aF4Nd/Pd9yRjZzLHQoE339/d2L7CttEJGJSoo8QKBkIkA5Jf0H61ZmVAEGf6KhCQgFBpbPNTwcPITqJVMo0PGgQWggPsDydfSUtevTk2PZ5/jnVr1VH7YFoRWlbylAZS0hK9X7D5jGAkNlbTwUVkC2iiXexUfxLMZXHVuBIR1jUgPFLgYW60ksgUhRYpL+Ewr4pHRP9yM8V+SXz61IeqkFIYqTlmx1eQiXyLrBbJH1fukeBCQnYZ1SzqcDlsrqQOAm/uAttLZvcBsW5/eOeWqtpHVUlXvKSRoV8N0PYbtqfr/cv0qeTepw32o7nE22wSvvW7Ebt44ZGXA8LA29a+frRG2jYATU7QBksbaT73DOEz6Cre3o7d0DS68ZaDgW6mcQyYAIWbkcmXGlPKdWOGN+1OX35UJqDfEMtlqbni2aCfbvlxMxVoBlBODfNUpX3aCOSB+vCEk1mOJSJvc7WVvSqYRo4oFE6a6Zq9bmmWSN8+Q07JWVuPR1XAfAr6w9JNOPqEs/svC+szP79Z3MUDyKYPNCRbo+QJ+eUB8mBO7NbtIUDHSyw4ucnWA7ff7gCgrrj+BLf9zQAkV8FjIcMNfpbLiHWE5uCr/X7sF7hRefzjJy/1U7TrN/X/9eKwxWXojQrakVOI5Dp/9iWPcPjcRncugMcdLsOvJXYw47n/jbm1W2vuAXV9n1fzRXcYSC0qCRjdsvvrjqkELq0K8Xlu6QFLeO2q32D4nm4bbdC+fsllU5nehKVIX3idmF6fkKHR6a+ijjPxXX4BHXSk0MpCOoy0xseVnd8usteoUOSa1lyTdlsOA0N3MFrjWGXDlfxrWHQGmFKt0UEifYW5Jn6i2au2mTkpc3LdriOK8ieuJm8RltP3IegSwR6w+8gsw6VC/8+j97a+1UMDon8hFWlsUhOCIaStbjNreRhLeDyx8vjkoA6gqycMXHLLEAc9Jy7cIfbKnXF/rMDIrbN3uvjOtkLwNIhtYFjzCNcZYF0NPQT7NqHrAezD6HlY4bgnFeloYJxXw40tHp9U9t4Rq6kVyhE+49lamg+L+rLz1fLzSjlS3nKHE3ex9bABGB3k7rzkQKXX0iXYibH7tfUSZPSz0jJbNl+YHokY3pCoFe2vMCtjVIJ4r5Z28bbFH9QWuVfV/cct3uEAu35m,
